sound_file_name,Angle,Channel,trials.thisRepN,trials.thisTrialN,trials.thisN,trials.thisIndex,trials_3.thisRepN,trials_3.thisTrialN,trials_3.thisN,trials_3.thisIndex,trials_2.thisRepN,trials_2.thisTrialN,trials_2.thisN,trials_2.thisIndex,thisRow.t,notes,load_variables.started,load_variables.stopped,Welcome.started,key_instruct.started,Welcome.stopped,key_instruct.keys,key_instruct.rt,key_instruct.duration,pretest.started,trial_type,fixation.started,sound_1.started,fixation.stopped,image.started,pretest_response.started,pretest.stopped,pretest_response.keys,pretest_response.rt,pretest_response.duration,training.started,text.started,text.stopped,training.stopped,participant,session,date,expName,psychopyVersion,frameRate,expStart,
,,,,,,,,,,,,,,,,,0.014173166000546189,0.014950250000765664,,,,,,,,,,,,,,,,,,,,,,final,001,2024-11-17_14h25.42.695,experiment,2024.1.5,None,2024-11-17 14h25.53.560476 +0530,
,,,,,,,,,,,,,,,,,,,0.014976541000578436,0.028110332999858656,2.435307375000775,space,2.377524834000724,None,,,,,,,,,,,,,,,,final,001,2024-11-17_14h25.42.695,experiment,2024.1.5,None,2024-11-17 14h25.53.560476 +0530,
final_pure_tone_0_left.wav,0,Left,0,0,0,10,,,,,,,,,2.4721687080000265,,,,,,,,,,2.4444860000003246,pre_test,2.4721687080000265,2.942100624666879,2.967259166000076,3.4346134580009675,3.4346134580009675,4.726643250000052,c,1.290714749999097,None,,,,,final,001,2024-11-17_14h25.42.695,experiment,2024.1.5,None,2024-11-17 14h25.53.560476 +0530,
final_pure_tone_90_right.wav,90,Right,0,1,1,7,,,,,,,,,4.73884020800142,,,,,,,,,,4.727839750001294,pre_test,4.73884020800142,5.233978374666791,5.23390237500098,5.726112625001406,5.726112625001406,7.684915416000877,v,1.9508466249990306,None,,,,,final,001,2024-11-17_14h25.42.695,experiment,2024.1.5,None,2024-11-17 14h25.53.560476 +0530,
final_white_noise_90_right.wav,90,Right,0,2,2,1,,,,,,,,,7.696524458000567,,,,,,,,,,7.685555250000107,pre_test,7.696524458000567,8.1911154576667,8.190768416001447,8.684333916000469,8.684333916000469,15.493377500000861,v,6.807482707999952,None,,,,,final,001,2024-11-17_14h25.42.695,experiment,2024.1.5,None,2024-11-17 14h25.53.560476 +0530,
final_pure_tone_90_left.wav,90,Left,0,3,3,6,,,,,,,,,15.510060750000775,,,,,,,,,,15.493996125000194,pre_test,15.510060750000775,16.00078866666651,16.000913500000024,16.493051291001393,16.493051291001393,18.092205458000535,z,1.594160415999795,None,,,,,final,001,2024-11-17_14h25.42.695,experiment,2024.1.5,None,2024-11-17 14h25.53.560476 +0530,
final_white_noise_30_right.wav,30,Right,0,4,4,3,,,,,,,,,18.103162291001354,,,,,,,,,,18.092832541000462,pre_test,18.103162291001354,18.60064320766675,18.601086708000366,19.093239875001018,19.093239875001018,20.536740458001077,b,1.4343007080005918,None,,,,,final,001,2024-11-17_14h25.42.695,experiment,2024.1.5,None,2024-11-17 14h25.53.560476 +0530,
final_white_noise_0_right.wav,0,Right,0,5,5,5,,,,,,,,,20.548932458001218,,,,,,,,,,20.53743454100004,pre_test,20.548932458001218,21.04160029166657,21.040683541001272,21.534053125000355,21.534053125000355,22.47701145800056,c,0.9395091250007681,None,,,,,final,001,2024-11-17_14h25.42.695,experiment,2024.1.5,None,2024-11-17 14h25.53.560476 +0530,
final_white_noise_90_left.wav,90,Left,0,6,6,0,,,,,,,,,22.48815637500047,,,,,,,,,,22.477641250001398,pre_test,22.48815637500047,22.98385649966646,22.98452241599989,23.476667916000224,23.476667916000224,24.627155750000384,z,1.1491440829995554,None,,,,,final,001,2024-11-17_14h25.42.695,experiment,2024.1.5,None,2024-11-17 14h25.53.560476 +0530,
final_white_noise_0_left.wav,0,Left,0,7,7,4,,,,,,,,,24.638754749999862,,,,,,,,,,24.627834458000507,pre_test,24.638754749999862,25.134212041666856,25.134533125001326,25.62641233300019,25.62641233300019,27.219316541000808,v,1.5848464999999123,None,,,,,final,001,2024-11-17_14h25.42.695,experiment,2024.1.5,None,2024-11-17 14h25.53.560476 +0530,
final_pure_tone_30_left.wav,30,Left,0,8,8,8,,,,,,,,,27.23147195800084,,,,,,,,,,27.22021491600026,pre_test,27.23147195800084,27.726046999667474,27.723421208000218,28.21801383300044,28.21801383300044,31.819001333000415,x,3.596945291999873,None,,,,,final,001,2024-11-17_14h25.42.695,experiment,2024.1.5,None,2024-11-17 14h25.53.560476 +0530,
final_pure_tone_0_right.wav,0,Right,0,9,9,11,,,,,,,,,31.83030008300011,,,,,,,,,,31.81964295800026,pre_test,31.83030008300011,32.323927916666676,32.322697708001215,32.81733391600028,32.81733391600028,33.50333104099991,c,0.6808346670004539,None,,,,,final,001,2024-11-17_14h25.42.695,experiment,2024.1.5,None,2024-11-17 14h25.53.560476 +0530,
final_pure_tone_30_right.wav,30,Right,0,10,10,9,,,,,,,,,33.51553508300094,,,,,,,,,,33.50413308300085,pre_test,33.51553508300094,34.00838320766731,34.00819704100104,34.501226333000886,34.501226333000886,37.769971666000856,b,3.262583125000674,None,,,,,final,001,2024-11-17_14h25.42.695,experiment,2024.1.5,None,2024-11-17 14h25.53.560476 +0530,
final_white_noise_30_left.wav,30,Left,0,11,11,2,,,,,,,,,37.78250679099983,,,,,,,,,,37.77106954100054,pre_test,37.78250679099983,38.27524479166665,38.27441208300115,38.76842079100061,38.76842079100061,39.42717025000093,z,0.6560654580007395,None,,,,,final,001,2024-11-17_14h25.42.695,experiment,2024.1.5,None,2024-11-17 14h25.53.560476 +0530,
final_white_noise_0_left.wav,0,Left,1,0,12,4,,,,,,,,,39.43699395800104,,,,,,,,,,39.42783591599982,pre_test,39.43699395800104,39.93461579166639,39.934586291001324,40.427259375001086,40.427259375001086,41.503801791001024,c,1.0739684170002874,None,,,,,final,001,2024-11-17_14h25.42.695,experiment,2024.1.5,None,2024-11-17 14h25.53.560476 +0530,
final_pure_tone_30_right.wav,30,Right,1,1,13,9,,,,,,,,,41.515772165999806,,,,,,,,,,41.50475866600027,pre_test,41.515772165999806,42.008400166667585,42.00848716600012,42.50141841600089,42.50141841600089,45.987497000000076,v,3.48345741599951,None,,,,,final,001,2024-11-17_14h25.42.695,experiment,2024.1.5,None,2024-11-17 14h25.53.560476 +0530,
final_pure_tone_30_left.wav,30,Left,1,2,14,8,,,,,,,,,46.00035712499994,,,,,,,,,,45.98875879099978,pre_test,46.00035712499994,46.49343937466644,46.491480624999895,46.98464100000092,46.98464100000092,47.97615179100103,x,0.9843725000009727,None,,,,,final,001,2024-11-17_14h25.42.695,experiment,2024.1.5,None,2024-11-17 14h25.53.560476 +0530,
final_white_noise_30_right.wav,30,Right,1,3,15,3,,,,,,,,,47.988405707999846,,,,,,,,,,47.97681604100035,pre_test,47.988405707999846,48.47614016666763,48.48514616600005,48.97729525000068,48.97729525000068,49.78595283300092,b,0.8036830840010225,None,,,,,final,001,2024-11-17_14h25.42.695,experiment,2024.1.5,None,2024-11-17 14h25.53.560476 +0530,
final_pure_tone_0_left.wav,0,Left,1,4,16,10,,,,,,,,,49.79754991600021,,,,,,,,,,49.78658845800055,pre_test,49.79754991600021,50.292064999667005,50.289963458000784,50.77626954100015,50.77626954100015,52.911264750000555,c,2.1261253749999014,None,,,,,final,001,2024-11-17_14h25.42.695,experiment,2024.1.5,None,2024-11-17 14h25.53.560476 +0530,
final_pure_tone_90_right.wav,90,Right,1,5,17,7,,,,,,,,,52.922910916000546,,,,,,,,,,52.91191783300019,pre_test,52.922910916000546,53.41818716666809,53.41847991600116,53.910414707999735,53.910414707999735,55.73622879100003,v,1.8245738750010787,None,,,,,final,001,2024-11-17_14h25.42.695,experiment,2024.1.5,None,2024-11-17 14h25.53.560476 +0530,
final_white_noise_90_right.wav,90,Right,1,6,18,1,,,,,,,,,55.74787775000004,,,,,,,,,,55.73684258300091,pre_test,55.74787775000004,56.24384420766752,56.241621625000334,56.73512179099998,56.73512179099998,57.31342662499992,b,0.5672394170014741,None,,,,,final,001,2024-11-17_14h25.42.695,experiment,2024.1.5,None,2024-11-17 14h25.53.560476 +0530,
final_white_noise_30_left.wav,30,Left,1,7,19,2,,,,,,,,,57.32161237500077,,,,,,,,,,57.31404779100012,pre_test,57.32161237500077,57.81818629166652,57.81872475000091,58.31060075000096,58.31060075000096,61.261404000000766,x,2.9431271249995916,None,,,,,final,001,2024-11-17_14h25.42.695,experiment,2024.1.5,None,2024-11-17 14h25.53.560476 +0530,
final_pure_tone_0_right.wav,0,Right,1,8,20,11,,,,,,,,,61.27269445800084,,,,,,,,,,61.262027665999994,pre_test,61.27269445800084,61.7685622076681,61.768807874999766,62.261057790999985,62.261057790999985,63.81935329100088,c,1.5546668749993842,None,,,,,final,001,2024-11-17_14h25.42.695,experiment,2024.1.5,None,2024-11-17 14h25.53.560476 +0530,
final_white_noise_90_left.wav,90,Left,1,9,21,0,,,,,,,,,63.83072845800052,,,,,,,,,,63.82002037500024,pre_test,63.83072845800052,64.32604808266684,64.32550120800079,64.81092562500089,64.81092562500089,65.48743125000146,z,0.6717907080001169,None,,,,,final,001,2024-11-17_14h25.42.695,experiment,2024.1.5,None,2024-11-17 14h25.53.560476 +0530,
final_white_noise_0_right.wav,0,Right,1,10,22,5,,,,,,,,,65.49967370800005,,,,,,,,,,65.48855837500014,pre_test,65.49967370800005,65.99315966666678,65.99217000000135,66.48547270800009,66.48547270800009,68.92737020800087,b,2.43984595800066,None,,,,,final,001,2024-11-17_14h25.42.695,experiment,2024.1.5,None,2024-11-17 14h25.53.560476 +0530,
final_pure_tone_90_left.wav,90,Left,1,11,23,6,,,,,,,,,68.93941379100033,,,,,,,,,,68.92802195800141,pre_test,68.93941379100033,69.42694449966645,69.43572687500091,69.92801479100126,69.92801479100126,71.01233087500077,x,1.0741062079996482,None,,,,,final,001,2024-11-17_14h25.42.695,experiment,2024.1.5,None,2024-11-17 14h25.53.560476 +0530,
final_pure_tone_0_right.wav,0,Right,2,0,24,11,,,,,,,,,71.0347938750001,,,,,,,,,,71.0130250000002,pre_test,71.0347938750001,71.5188019576674,71.52540899999985,72.01183887499974,72.01183887499974,72.87779141600004,c,0.8585308749989053,None,,,,,final,001,2024-11-17_14h25.42.695,experiment,2024.1.5,None,2024-11-17 14h25.53.560476 +0530,
final_white_noise_30_left.wav,30,Left,2,1,25,2,,,,,,,,,72.88878529100111,,,,,,,,,,72.87868941600027,pre_test,72.88878529100111,73.38557791666814,73.3858209580012,73.87752733300113,73.87752733300113,76.02105225000014,x,2.1386627500014583,None,,,,,final,001,2024-11-17_14h25.42.695,experiment,2024.1.5,None,2024-11-17 14h25.53.560476 +0530,
final_pure_tone_30_right.wav,30,Right,2,2,26,9,,,,,,,,,76.03282041600141,,,,,,,,,,76.02168987500045,pre_test,76.03282041600141,76.52743279166704,76.52348054100003,77.01905204100149,77.01905204100149,78.10301458300091,v,1.077873541998997,None,,,,,final,001,2024-11-17_14h25.42.695,experiment,2024.1.5,None,2024-11-17 14h25.53.560476 +0530,
final_pure_tone_90_left.wav,90,Left,2,3,27,6,,,,,,,,,78.11282170800041,,,,,,,,,,78.10361858299984,pre_test,78.11282170800041,78.60294487466696,78.60681012500027,79.09478533299989,79.09478533299989,80.43739270800143,v,1.334283250000226,None,,,,,final,001,2024-11-17_14h25.42.695,experiment,2024.1.5,None,2024-11-17 14h25.53.560476 +0530,
final_white_noise_0_left.wav,0,Left,2,4,28,4,,,,,,,,,80.4492439580008,,,,,,,,,,80.43824429100096,pre_test,80.4492439580008,80.94316499966796,80.94253033300083,81.43550816600145,81.43550816600145,82.1450028750005,c,0.7012870830003521,None,,,,,final,001,2024-11-17_14h25.42.695,experiment,2024.1.5,None,2024-11-17 14h25.53.560476 +0530,
final_pure_tone_30_left.wav,30,Left,2,5,29,8,,,,,,,,,82.15639629100042,,,,,,,,,,82.14562933300112,pre_test,82.15639629100042,82.6525460826672,82.65264449999995,83.14497633300016,83.14497633300016,85.53605720800078,c,2.3837234170005104,None,,,,,final,001,2024-11-17_14h25.42.695,experiment,2024.1.5,None,2024-11-17 14h25.53.560476 +0530,
final_white_noise_30_right.wav,30,Right,2,6,30,3,,,,,,,,,85.54767920800077,,,,,,,,,,85.53667008299999,pre_test,85.54767920800077,86.03620558266654,86.0403055830011,86.52835374999995,86.52835374999995,88.12866062500143,b,1.5983662500002538,None,,,,,final,001,2024-11-17_14h25.42.695,experiment,2024.1.5,None,2024-11-17 14h25.53.560476 +0530,
final_white_noise_90_right.wav,90,Right,2,7,31,1,,,,,,,,,88.1388304580014,,,,,,,,,,88.12927275000038,pre_test,88.1388304580014,88.63554787466661,88.63611170800141,89.12828466600149,89.12828466600149,90.1710432079999,b,1.0347847499997442,None,,,,,final,001,2024-11-17_14h25.42.695,experiment,2024.1.5,None,2024-11-17 14h25.53.560476 +0530,
final_pure_tone_0_left.wav,0,Left,2,8,32,10,,,,,,,,,90.18280541600143,,,,,,,,,,90.1717012500012,pre_test,90.18280541600143,90.67740116666779,90.67583025000022,91.16887683300047,91.16887683300047,92.14430425000137,c,0.9675189579993457,None,,,,,final,001,2024-11-17_14h25.42.695,experiment,2024.1.5,None,2024-11-17 14h25.53.560476 +0530,
final_pure_tone_90_right.wav,90,Right,2,9,33,7,,,,,,,,,92.15636975000052,,,,,,,,,,92.14569850000044,pre_test,92.15636975000052,92.65293016666716,92.65293666599973,93.14497616600056,93.14497616600056,96.178446291,v,3.0269253330006904,None,,,,,final,001,2024-11-17_14h25.42.695,experiment,2024.1.5,None,2024-11-17 14h25.53.560476 +0530,
final_white_noise_0_right.wav,0,Right,2,10,34,5,,,,,,,,,96.18859687500117,,,,,,,,,,96.17906191600014,pre_test,96.18859687500117,96.68574041666785,96.68655287500042,97.17819275000147,97.17819275000147,98.63796283300144,c,1.4504556669999147,None,,,,,final,001,2024-11-17_14h25.42.695,experiment,2024.1.5,None,2024-11-17 14h25.53.560476 +0530,
final_white_noise_90_left.wav,90,Left,2,11,35,0,,,,,,,,,98.64894366600129,,,,,,,,,,98.63926637500117,pre_test,98.64894366600129,99.14251591666677,99.14316062500075,99.63637333299994,99.63637333299994,100.25480975000028,x,0.6099067499999364,None,,,,,final,001,2024-11-17_14h25.42.695,experiment,2024.1.5,None,2024-11-17 14h25.53.560476 +0530,
final_pure_tone_30_right.wav,30,Right,3,0,36,9,,,,,,,,,100.26503070800027,,,,,,,,,,100.25548870800048,pre_test,100.26503070800027,100.76045966666813,100.75968795800145,101.25304787500136,101.25304787500136,103.67966483300006,b,2.4187698340010684,None,,,,,final,001,2024-11-17_14h25.42.695,experiment,2024.1.5,None,2024-11-17 14h25.53.560476 +0530,
final_pure_tone_0_right.wav,0,Right,3,1,37,11,,,,,,,,,103.69004570800098,,,,,,,,,,103.6803374580013,pre_test,103.69004570800098,104.1859824996666,104.1864951660009,104.67860674999974,104.67860674999974,106.31247016599991,b,1.630831708000187,None,,,,,final,001,2024-11-17_14h25.42.695,experiment,2024.1.5,None,2024-11-17 14h25.53.560476 +0530,
final_pure_tone_0_left.wav,0,Left,3,2,38,10,,,,,,,,,106.3227093330006,,,,,,,,,,106.31309741600126,pre_test,106.3227093330006,106.81939308266762,106.81990762500027,107.3106413330006,107.3106413330006,108.24610037500133,b,0.9268377919997874,None,,,,,final,001,2024-11-17_14h25.42.695,experiment,2024.1.5,None,2024-11-17 14h25.53.560476 +0530,
final_pure_tone_90_right.wav,90,Right,3,3,39,7,,,,,,,,,108.25635316599983,,,,,,,,,,108.24678020800093,pre_test,108.25635316599983,108.75372445766722,108.75274445800096,109.24529829099993,109.24529829099993,110.14630600000055,v,0.894180541001333,None,,,,,final,001,2024-11-17_14h25.42.695,experiment,2024.1.5,None,2024-11-17 14h25.53.560476 +0530,
final_white_noise_90_right.wav,90,Right,3,4,40,1,,,,,,,,,110.15677945800053,,,,,,,,,,110.14691320800011,pre_test,110.15677945800053,110.65290229166773,110.6532449160004,111.14505154100152,111.14505154100152,115.22969400000147,v,4.07677404199967,None,,,,,final,001,2024-11-17_14h25.42.695,experiment,2024.1.5,None,2024-11-17 14h25.53.560476 +0530,
final_white_noise_90_left.wav,90,Left,3,5,41,0,,,,,,,,,115.24009100000148,,,,,,,,,,115.2303221660004,pre_test,115.24009100000148,115.73691245766737,115.73684712500108,116.22814375000053,116.22814375000053,117.1461315000015,x,0.9101346660008858,None,,,,,final,001,2024-11-17_14h25.42.695,experiment,2024.1.5,None,2024-11-17 14h25.53.560476 +0530,
final_pure_tone_30_left.wav,30,Left,3,6,42,8,,,,,,,,,117.15635525000107,,,,,,,,,,117.1467449160009,pre_test,117.15635525000107,117.6530153326678,117.65355695800099,118.1453753750011,118.1453753750011,118.61238458300068,c,0.45986837499913236,None,,,,,final,001,2024-11-17_14h25.42.695,experiment,2024.1.5,None,2024-11-17 14h25.53.560476 +0530,
final_white_noise_30_left.wav,30,Left,3,7,43,2,,,,,,,,,118.62226408300012,,,,,,,,,,118.61300016600035,pre_test,118.62226408300012,119.12005095766678,119.12026720799986,119.61241916600011,119.61241916600011,120.26294037499974,x,0.6484101660007582,None,,,,,final,001,2024-11-17_14h25.42.695,experiment,2024.1.5,None,2024-11-17 14h25.53.560476 +0530,
final_white_noise_30_right.wav,30,Right,3,8,44,3,,,,,,,,,120.27369912500035,,,,,,,,,,120.26406875000066,pre_test,120.27369912500035,120.76994429166758,120.76997149999988,121.26208641599987,121.26208641599987,122.06289600000127,v,0.7993382080003357,None,,,,,final,001,2024-11-17_14h25.42.695,experiment,2024.1.5,None,2024-11-17 14h25.53.560476 +0530,
final_pure_tone_90_left.wav,90,Left,3,9,45,6,,,,,,,,,122.07425633300045,,,,,,,,,,122.06355774999975,pre_test,122.07425633300045,122.56990374966723,122.57038416599971,123.06240654100111,123.06240654100111,123.8894740830001,c,0.8244943329991656,None,,,,,final,001,2024-11-17_14h25.42.695,experiment,2024.1.5,None,2024-11-17 14h25.53.560476 +0530,
final_white_noise_0_left.wav,0,Left,3,10,46,4,,,,,,,,,123.90231712500099,,,,,,,,,,123.89073441599976,pre_test,123.90231712500099,124.39502254166679,124.39329787499992,124.88729583300119,124.88729583300119,125.99736204100009,c,1.1026111660012248,None,,,,,final,001,2024-11-17_14h25.42.695,experiment,2024.1.5,None,2024-11-17 14h25.53.560476 +0530,
final_white_noise_0_right.wav,0,Right,3,11,47,5,,,,,,,,,126.00877162500001,,,,,,,,,,125.99804095800027,pre_test,126.00877162500001,126.50287945766674,126.50388858299993,126.99610570799996,126.99610570799996,128.01209562500117,c,1.0078849159999663,None,,,,,final,001,2024-11-17_14h25.42.695,experiment,2024.1.5,None,2024-11-17 14h25.53.560476 +0530,
final_white_noise_0_right.wav,0,Right,4,0,48,5,,,,,,,,,128.02258054100093,,,,,,,,,,128.01279429100032,pre_test,128.02258054100093,128.52062716666686,128.52028387500104,129.01217958300003,129.01217958300003,129.98216845800016,c,0.9585308749992691,None,,,,,final,001,2024-11-17_14h25.42.695,experiment,2024.1.5,None,2024-11-17 14h25.53.560476 +0530,
final_pure_tone_90_right.wav,90,Right,4,1,49,7,,,,,,,,,129.99127904099987,,,,,,,,,,129.98278979099996,pre_test,129.99127904099987,130.4865423326667,130.48717179100095,130.97946608300117,130.97946608300117,132.24860020800043,v,1.2583202919995529,None,,,,,final,001,2024-11-17_14h25.42.695,experiment,2024.1.5,None,2024-11-17 14h25.53.560476 +0530,
final_pure_tone_0_right.wav,0,Right,4,2,50,11,,,,,,,,,132.2575833330011,,,,,,,,,,132.24922445800075,pre_test,132.2575833330011,132.75363562466762,132.7541091660005,133.24597350000113,133.24597350000113,134.20572679100042,v,0.9510224580008071,None,,,,,final,001,2024-11-17_14h25.42.695,experiment,2024.1.5,None,2024-11-17 14h25.53.560476 +0530,
final_white_noise_90_right.wav,90,Right,4,3,51,1,,,,,,,,,134.2181085000011,,,,,,,,,,134.20664562500133,pre_test,134.2181085000011,134.70892108266733,134.7116661660002,135.20419808299994,135.20419808299994,135.5947743329998,b,0.3841032499985886,None,,,,,final,001,2024-11-17_14h25.42.695,experiment,2024.1.5,None,2024-11-17 14h25.53.560476 +0530,
final_white_noise_90_left.wav,90,Left,4,4,52,0,,,,,,,,,135.60662570800014,,,,,,,,,,135.5954337080002,pre_test,135.60662570800014,136.09421579166727,136.10422570800074,136.5963636659999,136.5963636659999,137.72224262500094,z,1.1162742500000604,None,,,,,final,001,2024-11-17_14h25.42.695,experiment,2024.1.5,None,2024-11-17 14h25.53.560476 +0530,
final_white_noise_30_right.wav,30,Right,4,5,53,3,,,,,,,,,137.73513125000136,,,,,,,,,,137.7234990830002,pre_test,137.73513125000136,138.22837799966717,138.22699595800077,138.72034450000137,138.72034450000137,139.48814554100136,z,0.763633958000355,None,,,,,final,001,2024-11-17_14h25.42.695,experiment,2024.1.5,None,2024-11-17 14h25.53.560476 +0530,
final_pure_tone_30_left.wav,30,Left,4,6,54,8,,,,,,,,,139.499788041001,,,,,,,,,,139.48874529100067,pre_test,139.499788041001,139.994718457667,139.993807750001,140.47945020800034,140.47945020800034,141.64664033300141,x,1.164452999999412,None,,,,,final,001,2024-11-17_14h25.42.695,experiment,2024.1.5,None,2024-11-17 14h25.53.560476 +0530,
final_white_noise_30_left.wav,30,Left,4,7,55,2,,,,,,,,,141.65838262500074,,,,,,,,,,141.64742995800043,pre_test,141.65838262500074,142.15439479166733,142.15414891600085,142.64572150000095,142.64572150000095,143.02928775000146,x,0.37643041699993773,None,,,,,final,001,2024-11-17_14h25.42.695,experiment,2024.1.5,None,2024-11-17 14h25.53.560476 +0530,
final_pure_tone_90_left.wav,90,Left,4,8,56,6,,,,,,,,,143.04128329100058,,,,,,,,,,143.02994687499995,pre_test,143.04128329100058,143.5292402496673,143.53759804100082,144.02911962500002,144.02911962500002,145.21246916600103,c,1.1752620410006784,None,,,,,final,001,2024-11-17_14h25.42.695,experiment,2024.1.5,None,2024-11-17 14h25.53.560476 +0530,
final_white_noise_0_left.wav,0,Left,4,9,57,4,,,,,,,,,145.22447250000005,,,,,,,,,,145.2131220830015,pre_test,145.22447250000005,145.71223104166737,145.72083520800152,146.21330533299988,146.21330533299988,146.87974770800065,c,0.6649101250004605,None,,,,,final,001,2024-11-17_14h25.42.695,experiment,2024.1.5,None,2024-11-17 14h25.53.560476 +0530,
final_pure_tone_30_right.wav,30,Right,4,10,58,9,,,,,,,,,146.89101979100087,,,,,,,,,,146.88037958300083,pre_test,146.89101979100087,147.37921608266723,147.38767808300145,147.87942691600074,147.87942691600074,148.4961137500013,v,0.6139689589999762,None,,,,,final,001,2024-11-17_14h25.42.695,experiment,2024.1.5,None,2024-11-17 14h25.53.560476 +0530,
final_pure_tone_0_left.wav,0,Left,4,11,59,10,,,,,,,,,148.50804329099992,,,,,,,,,,148.4967295410006,pre_test,148.50804329099992,149.00429512466715,149.00460487500095,149.49630179100131,149.49630179100131,151.03283037500114,b,1.5250732919994334,None,,,,,final,001,2024-11-17_14h25.42.695,experiment,2024.1.5,None,2024-11-17 14h25.53.560476 +0530,
final_white_noise_30_left.wav,30,Left,5,0,60,2,,,,,,,,,151.0413655829998,,,,,,,,,,151.03346908300045,pre_test,151.0413655829998,151.53746387466734,151.53741170800095,152.0295646250015,152.0295646250015,152.63040108300083,c,0.5928554580004857,None,,,,,final,001,2024-11-17_14h25.42.695,experiment,2024.1.5,None,2024-11-17 14h25.53.560476 +0530,
final_pure_tone_90_left.wav,90,Left,5,1,61,6,,,,,,,,,152.6411996250008,,,,,,,,,,152.63107541600039,pre_test,152.6411996250008,153.13747741666728,153.13745954099977,153.62995025000055,153.62995025000055,156.02289879100135,c,2.3830429169993295,None,,,,,final,001,2024-11-17_14h25.42.695,experiment,2024.1.5,None,2024-11-17 14h25.53.560476 +0530,
final_white_noise_90_left.wav,90,Left,5,2,62,0,,,,,,,,,156.0349317500004,,,,,,,,,,156.02423137500045,pre_test,156.0349317500004,156.52907183266714,156.52751533300034,157.02052383299997,157.02052383299997,157.60598879100144,z,0.5777502090004418,None,,,,,final,001,2024-11-17_14h25.42.695,experiment,2024.1.5,None,2024-11-17 14h25.53.560476 +0530,
final_pure_tone_30_left.wav,30,Left,5,3,63,8,,,,,,,,,157.6191899580008,,,,,,,,,,157.60735575000035,pre_test,157.6191899580008,158.11040995766805,158.11034975000075,158.60411424999984,158.60411424999984,159.48859733300014,c,0.8778372920005495,None,,,,,final,001,2024-11-17_14h25.42.695,experiment,2024.1.5,None,2024-11-17 14h25.53.560476 +0530,
final_pure_tone_30_right.wav,30,Right,5,4,64,9,,,,,,,,,159.49890583300112,,,,,,,,,,159.48921195799994,pre_test,159.49890583300112,159.99597945766644,159.99261716600085,160.47972987499998,160.47972987499998,161.57358691599984,b,1.0851163330007694,None,,,,,final,001,2024-11-17_14h25.42.695,experiment,2024.1.5,None,2024-11-17 14h25.53.560476 +0530,
final_white_noise_90_right.wav,90,Right,5,5,65,1,,,,,,,,,161.58584312499988,,,,,,,,,,161.574606958,pre_test,161.58584312499988,162.0766992076681,162.07842345800054,162.57112491600128,162.57112491600128,163.24708379100048,b,0.6721660000002885,None,,,,,final,001,2024-11-17_14h25.42.695,experiment,2024.1.5,None,2024-11-17 14h25.53.560476 +0530,
final_pure_tone_90_right.wav,90,Right,5,6,66,7,,,,,,,,,163.25843158300086,,,,,,,,,,163.24770295800045,pre_test,163.25843158300086,163.75436887466665,163.75444558300114,164.24709266600075,164.24709266600075,165.07349641600013,b,0.8241816250010743,None,,,,,final,001,2024-11-17_14h25.42.695,experiment,2024.1.5,None,2024-11-17 14h25.53.560476 +0530,
final_white_noise_0_right.wav,0,Right,5,7,67,5,,,,,,,,,165.08515383300073,,,,,,,,,,165.07418150000012,pre_test,165.08515383300073,165.5797682076666,165.57809116600038,166.07103862500117,166.07103862500117,166.68854895799996,v,0.6102122909996979,None,,,,,final,001,2024-11-17_14h25.42.695,experiment,2024.1.5,None,2024-11-17 14h25.53.560476 +0530,
final_white_noise_30_right.wav,30,Right,5,8,68,3,,,,,,,,,166.70151687500038,,,,,,,,,,166.68988262499988,pre_test,166.70151687500038,167.19532912466664,167.19446312500077,167.6794259160015,167.6794259160015,168.29046354100137,b,0.6084414589986409,None,,,,,final,001,2024-11-17_14h25.42.695,experiment,2024.1.5,None,2024-11-17 14h25.53.560476 +0530,
final_pure_tone_0_right.wav,0,Right,5,9,69,11,,,,,,,,,168.30233550000048,,,,,,,,,,168.29115891600122,pre_test,168.30233550000048,168.793964374667,168.79291275000105,169.28766729100062,169.28766729100062,170.50682987500113,c,1.2138458329991408,None,,,,,final,001,2024-11-17_14h25.42.695,experiment,2024.1.5,None,2024-11-17 14h25.53.560476 +0530,
final_pure_tone_0_left.wav,0,Left,5,10,70,10,,,,,,,,,170.5193992910008,,,,,,,,,,170.50753662500028,pre_test,170.5193992910008,171.01133949966814,171.01217025000005,171.5050208749999,171.5050208749999,172.82278541600135,c,1.3164412080004695,None,,,,,final,001,2024-11-17_14h25.42.695,experiment,2024.1.5,None,2024-11-17 14h25.53.560476 +0530,
final_white_noise_0_left.wav,0,Left,5,11,71,4,,,,,,,,,172.83395816600023,,,,,,,,,,172.82344550000016,pre_test,172.83395816600023,173.3286732916679,173.32646020799984,173.82089625000117,173.82089625000117,174.9471381250005,x,1.1229301250004937,None,,,,,final,001,2024-11-17_14h25.42.695,experiment,2024.1.5,None,2024-11-17 14h25.53.560476 +0530,
final_white_noise_0_left.wav,0,Left,6,0,72,4,,,,,,,,,174.9579024579998,,,,,,,,,,174.94776708300014,pre_test,174.9579024579998,175.45438479166685,175.4549435000008,175.94498100000055,175.94498100000055,176.89698099999987,x,0.9504954170006386,None,,,,,final,001,2024-11-17_14h25.42.695,experiment,2024.1.5,None,2024-11-17 14h25.53.560476 +0530,
final_white_noise_90_right.wav,90,Right,6,1,73,1,,,,,,,,,176.90837875000034,,,,,,,,,,176.89761333299975,pre_test,176.90837875000034,177.40475120766703,177.40497462500025,177.8976459580008,177.8976459580008,178.65543854099997,v,0.7500315420002153,None,,,,,final,001,2024-11-17_14h25.42.695,experiment,2024.1.5,None,2024-11-17 14h25.53.560476 +0530,
final_pure_tone_90_right.wav,90,Right,6,2,74,7,,,,,,,,,178.6666430410005,,,,,,,,,,178.65608600000087,pre_test,178.6666430410005,179.162352749667,179.16182433300128,179.64562829100032,179.64562829100032,180.97381575000145,b,1.3200797089994012,None,,,,,final,001,2024-11-17_14h25.42.695,experiment,2024.1.5,None,2024-11-17 14h25.53.560476 +0530,
final_white_noise_30_right.wav,30,Right,6,3,75,3,,,,,,,,,180.98571245800122,,,,,,,,,,180.97500583300098,pre_test,180.98571245800122,181.47912729166663,181.47795075000067,181.97168287500062,181.97168287500062,182.5407977499999,v,0.5568306250006572,None,,,,,final,001,2024-11-17_14h25.42.695,experiment,2024.1.5,None,2024-11-17 14h25.53.560476 +0530,
final_pure_tone_30_right.wav,30,Right,6,4,76,9,,,,,,,,,182.5518492500014,,,,,,,,,,182.5416621660006,pre_test,182.5518492500014,183.04442458266774,183.04507045799983,183.53808679100075,183.53808679100075,183.9224970410014,b,0.37779799999952957,None,,,,,final,001,2024-11-17_14h25.42.695,experiment,2024.1.5,None,2024-11-17 14h25.53.560476 +0530,
final_white_noise_90_left.wav,90,Left,6,5,77,0,,,,,,,,,183.9325686250013,,,,,,,,,,183.92309999999998,pre_test,183.9325686250013,184.42994112466684,184.42598904100123,184.92160054099986,184.92160054099986,185.78340741600005,x,0.8509140419992036,None,,,,,final,001,2024-11-17_14h25.42.695,experiment,2024.1.5,None,2024-11-17 14h25.53.560476 +0530,
final_pure_tone_0_left.wav,0,Left,6,6,78,10,,,,,,,,,185.79204933300025,,,,,,,,,,185.78405808299976,pre_test,185.79204933300025,186.2879913326672,186.28849208300016,186.78131125000073,186.78131125000073,187.0856427079998,c,0.29161691700028314,None,,,,,final,001,2024-11-17_14h25.42.695,experiment,2024.1.5,None,2024-11-17 14h25.53.560476 +0530,
final_pure_tone_30_left.wav,30,Left,6,7,79,8,,,,,,,,,187.09479920800004,,,,,,,,,,187.0863180410015,pre_test,187.09479920800004,187.5879628746682,187.5890681660003,188.0808855410014,188.0808855410014,190.3564370410004,x,2.2719786670004396,None,,,,,final,001,2024-11-17_14h25.42.695,experiment,2024.1.5,None,2024-11-17 14h25.53.560476 +0530,
final_white_noise_0_right.wav,0,Right,6,8,80,5,,,,,,,,,190.3691751660008,,,,,,,,,,190.3571860410011,pre_test,190.3691751660008,190.86343887466708,190.8614890830013,191.35548666600153,191.35548666600153,195.0819340830003,x,3.7202438750009605,None,,,,,final,001,2024-11-17_14h25.42.695,experiment,2024.1.5,None,2024-11-17 14h25.53.560476 +0530,
final_pure_tone_0_right.wav,0,Right,6,9,81,11,,,,,,,,,195.09301216600034,,,,,,,,,,195.0826691250004,pre_test,195.09301216600034,195.58850829166684,195.58877104100065,196.08079029100008,196.08079029100008,197.5396853330003,c,1.4522628750000877,None,,,,,final,001,2024-11-17_14h25.42.695,experiment,2024.1.5,None,2024-11-17 14h25.53.560476 +0530,
final_pure_tone_90_left.wav,90,Left,6,10,82,6,,,,,,,,,197.55271345800065,,,,,,,,,,197.54102533300102,pre_test,197.55271345800065,198.04601462466806,198.04538400000092,198.5385756249998,198.5385756249998,198.96414633300083,x,0.41723470900069515,None,,,,,final,001,2024-11-17_14h25.42.695,experiment,2024.1.5,None,2024-11-17 14h25.53.560476 +0530,
final_white_noise_30_left.wav,30,Left,6,11,83,2,,,,,,,,,198.97588758300117,,,,,,,,,,198.96476062500005,pre_test,198.97588758300117,199.4716619996673,199.4724505410013,199.96435154100072,199.96435154100072,200.26405570800125,x,0.2917665830009355,None,,,,,final,001,2024-11-17_14h25.42.695,experiment,2024.1.5,None,2024-11-17 14h25.53.560476 +0530,
final_pure_tone_30_right.wav,30,Right,7,0,84,9,,,,,,,,,200.27596900000026,,,,,,,,,,200.26466016599989,pre_test,200.27596900000026,200.77162141666693,200.7721216250011,201.2634025410007,201.2634025410007,201.60791849999987,c,0.341911749999781,None,,,,,final,001,2024-11-17_14h25.42.695,experiment,2024.1.5,None,2024-11-17 14h25.53.560476 +0530,
final_white_noise_90_right.wav,90,Right,7,1,85,1,,,,,,,,,201.62021283300055,,,,,,,,,,201.60885416600104,pre_test,201.62021283300055,202.11298412466775,202.1120122500015,202.60531866600104,202.60531866600104,204.01461741599996,c,1.4062956249999843,None,,,,,final,001,2024-11-17_14h25.42.695,experiment,2024.1.5,None,2024-11-17 14h25.53.560476 +0530,
final_pure_tone_30_left.wav,30,Left,7,2,86,8,,,,,,,,,204.0263502079997,,,,,,,,,,204.01528325000072,pre_test,204.0263502079997,204.5217429996667,204.5222506250011,205.01483137500145,205.01483137500145,205.81523695800024,x,0.7913877080009115,None,,,,,final,001,2024-11-17_14h25.42.695,experiment,2024.1.5,None,2024-11-17 14h25.53.560476 +0530,
final_pure_tone_90_left.wav,90,Left,7,3,87,6,,,,,,,,,205.825729958,,,,,,,,,,205.8159475829998,pre_test,205.825729958,206.3216699576681,206.3223687080008,206.81431200000043,206.81431200000043,207.54773800000112,z,0.7281358750005893,None,,,,,final,001,2024-11-17_14h25.42.695,experiment,2024.1.5,None,2024-11-17 14h25.53.560476 +0530,
final_white_noise_0_left.wav,0,Left,7,4,88,4,,,,,,,,,207.56025779100128,,,,,,,,,,207.54834904100062,pre_test,207.56025779100128,208.04740045766655,208.05543637499977,208.54800141600026,208.54800141600026,209.28965883300043,c,0.7334003750002012,None,,,,,final,001,2024-11-17_14h25.42.695,experiment,2024.1.5,None,2024-11-17 14h25.53.560476 +0530,
final_white_noise_0_right.wav,0,Right,7,5,89,5,,,,,,,,,209.301300041001,,,,,,,,,,209.29071012500026,pre_test,209.301300041001,209.79524945766778,209.7963563330013,210.2889279580013,210.2889279580013,211.1166282080012,c,0.8177649999997811,None,,,,,final,001,2024-11-17_14h25.42.695,experiment,2024.1.5,None,2024-11-17 14h25.53.560476 +0530,
final_pure_tone_90_right.wav,90,Right,7,6,90,7,,,,,,,,,211.1284721660013,,,,,,,,,,211.11729758300135,pre_test,211.1284721660013,211.6220311246673,211.6224456660002,212.11477845800073,212.11477845800073,212.79142404100094,b,0.6741314579994651,None,,,,,final,001,2024-11-17_14h25.42.695,experiment,2024.1.5,None,2024-11-17 14h25.53.560476 +0530,
final_pure_tone_0_left.wav,0,Left,7,7,91,10,,,,,,,,,212.80378983300034,,,,,,,,,,212.7921432080002,pre_test,212.80378983300034,213.29648824966742,213.29493545800142,213.78884220800137,213.78884220800137,215.52459545800048,v,1.7269194590007828,None,,,,,final,001,2024-11-17_14h25.42.695,experiment,2024.1.5,None,2024-11-17 14h25.53.560476 +0530,
final_white_noise_90_left.wav,90,Left,7,8,92,0,,,,,,,,,215.5362795000001,,,,,,,,,,215.525393291,pre_test,215.5362795000001,216.02963808266784,216.02911912499985,216.522499875,216.522499875,217.18108458300048,x,0.6531011249990115,None,,,,,final,001,2024-11-17_14h25.42.695,experiment,2024.1.5,None,2024-11-17 14h25.53.560476 +0530,
final_white_noise_30_right.wav,30,Right,7,9,93,3,,,,,,,,,217.1931108330009,,,,,,,,,,217.18170933300098,pre_test,217.1931108330009,217.6889952496679,217.6892712910012,218.18144445800135,218.18144445800135,219.73187691600106,c,1.5472723330003646,None,,,,,final,001,2024-11-17_14h25.42.695,experiment,2024.1.5,None,2024-11-17 14h25.53.560476 +0530,
final_white_noise_30_left.wav,30,Left,7,10,94,2,,,,,,,,,219.74324075000004,,,,,,,,,,219.73253533299976,pre_test,219.74324075000004,220.23834112466673,220.2392774580003,220.73130000000128,220.73130000000128,222.19847116600067,c,1.4624440419993334,None,,,,,final,001,2024-11-17_14h25.42.695,experiment,2024.1.5,None,2024-11-17 14h25.53.560476 +0530,
final_pure_tone_0_right.wav,0,Right,7,11,95,11,,,,,,,,,222.20989787500002,,,,,,,,,,222.19912862500132,pre_test,222.20989787500002,222.7055556666676,222.7057813749998,223.19878583300124,223.19878583300124,224.54116483300095,c,1.33670579200043,None,,,,,final,001,2024-11-17_14h25.42.695,experiment,2024.1.5,None,2024-11-17 14h25.53.560476 +0530,
final_pure_tone_90_right.wav,90,Right,8,0,96,7,,,,,,,,,224.55176637499972,,,,,,,,,,224.54186379100065,pre_test,224.55176637499972,225.0465811666675,225.04640787500102,225.5396081660001,225.5396081660001,227.09906141600004,v,1.558013125000798,None,,,,,final,001,2024-11-17_14h25.42.695,experiment,2024.1.5,None,2024-11-17 14h25.53.560476 +0530,
final_white_noise_30_right.wav,30,Right,8,1,97,3,,,,,,,,,227.10898133299997,,,,,,,,,,227.09967729100026,pre_test,227.10898133299997,227.60161216666737,227.6059358750008,228.09611787500035,228.09611787500035,228.31503125000017,b,0.21452129099998274,None,,,,,final,001,2024-11-17_14h25.42.695,experiment,2024.1.5,None,2024-11-17 14h25.53.560476 +0530,
final_pure_tone_0_right.wav,0,Right,8,2,98,11,,,,,,,,,228.3248094160008,,,,,,,,,,228.31564637500014,pre_test,228.3248094160008,228.82224429166698,228.8228794580009,229.31544970800132,229.31544970800132,230.77337033300137,c,1.4508400830000028,None,,,,,final,001,2024-11-17_14h25.42.695,experiment,2024.1.5,None,2024-11-17 14h25.53.560476 +0530,
final_white_noise_90_left.wav,90,Left,8,3,99,0,,,,,,,,,230.7863447079999,,,,,,,,,,230.7747775830012,pre_test,230.7863447079999,231.27795149966758,231.2774939580013,231.77317966600094,231.77317966600094,235.79176891600036,c,4.013201417001255,None,,,,,final,001,2024-11-17_14h25.42.695,experiment,2024.1.5,None,2024-11-17 14h25.53.560476 +0530,
final_white_noise_0_right.wav,0,Right,8,4,100,5,,,,,,,,,235.8044238750008,,,,,,,,,,235.79299866600013,pre_test,235.8044238750008,236.2953676246673,236.29420883300008,236.78991804100042,236.78991804100042,237.50672516600025,c,0.7140271250009391,None,,,,,final,001,2024-11-17_14h25.42.695,experiment,2024.1.5,None,2024-11-17 14h25.53.560476 +0530,
final_white_noise_30_left.wav,30,Left,8,5,101,2,,,,,,,,,237.51830145799977,,,,,,,,,,237.50732900000003,pre_test,237.51830145799977,238.01393587466762,238.0125095830008,238.50652274999993,238.50652274999993,240.09904479100078,x,1.5845092910003586,None,,,,,final,001,2024-11-17_14h25.42.695,experiment,2024.1.5,None,2024-11-17 14h25.53.560476 +0530,
final_pure_tone_90_left.wav,90,Left,8,6,102,6,,,,,,,,,240.11054650000005,,,,,,,,,,240.0997115830014,pre_test,240.11054650000005,240.60617266666694,240.60641991600096,241.0977917500004,241.0977917500004,242.3914377910005,z,1.285628124998766,None,,,,,final,001,2024-11-17_14h25.42.695,experiment,2024.1.5,None,2024-11-17 14h25.53.560476 +0530,
final_pure_tone_30_left.wav,30,Left,8,7,103,8,,,,,,,,,242.40448225,,,,,,,,,,242.3927504580006,pre_test,242.40448225,242.8965854576675,242.89438783300102,243.38974620800036,243.38974620800036,245.3492014580006,z,1.9559200830008194,None,,,,,final,001,2024-11-17_14h25.42.695,experiment,2024.1.5,None,2024-11-17 14h25.53.560476 +0530,
final_white_noise_0_left.wav,0,Left,8,8,104,4,,,,,,,,,245.360885125001,,,,,,,,,,245.34986954099986,pre_test,245.360885125001,245.8562742916677,245.8565978330007,246.3494365000006,246.3494365000006,247.50808966600016,v,1.1538444580000942,None,,,,,final,001,2024-11-17_14h25.42.695,experiment,2024.1.5,None,2024-11-17 14h25.53.560476 +0530,
final_pure_tone_0_left.wav,0,Left,8,9,105,10,,,,,,,,,247.52114400000028,,,,,,,,,,247.50947283300047,pre_test,247.52114400000028,248.01364266666704,248.01339066600121,248.50641716600148,248.50641716600148,250.17428895800003,c,1.6666140420002193,None,,,,,final,001,2024-11-17_14h25.42.695,experiment,2024.1.5,None,2024-11-17 14h25.53.560476 +0530,
final_white_noise_90_right.wav,90,Right,8,10,106,1,,,,,,,,,250.186054875001,,,,,,,,,,250.17492787500123,pre_test,250.186054875001,250.6803480416677,250.6800949160006,251.17275145799977,251.17275145799977,251.84312183300062,b,0.6616954999990412,None,,,,,final,001,2024-11-17_14h25.42.695,experiment,2024.1.5,None,2024-11-17 14h25.53.560476 +0530,
final_pure_tone_30_right.wav,30,Right,8,11,107,9,,,,,,,,,251.85435049999978,,,,,,,,,,251.8437945000005,pre_test,251.85435049999978,252.34809066666665,252.34464687500076,252.83937870800037,252.83937870800037,254.34136349999972,c,1.4928304999993998,None,,,,,final,001,2024-11-17_14h25.42.695,experiment,2024.1.5,None,2024-11-17 14h25.53.560476 +0530,
final_white_noise_90_left.wav,90,Left,9,0,108,0,,,,,,,,,254.35372583299977,,,,,,,,,,254.34248183300042,pre_test,254.35372583299977,254.84850549966748,254.84426975000133,255.3400738750006,255.3400738750006,257.4089365,x,2.0662691249999625,None,,,,,final,001,2024-11-17_14h25.42.695,experiment,2024.1.5,None,2024-11-17 14h25.53.560476 +0530,
final_pure_tone_30_right.wav,30,Right,9,1,109,9,,,,,,,,,257.4188928330004,,,,,,,,,,257.4098025000003,pre_test,257.4188928330004,257.9124318746674,257.91269775,258.40650150000147,258.40650150000147,259.19259008300105,c,0.7836328329995013,None,,,,,final,001,2024-11-17_14h25.42.695,experiment,2024.1.5,None,2024-11-17 14h25.53.560476 +0530,
final_white_noise_0_left.wav,0,Left,9,2,110,4,,,,,,,,,259.20466091600065,,,,,,,,,,259.1932342500004,pre_test,259.20466091600065,259.6974492916672,259.69687087500097,260.18950279100136,260.18950279100136,260.70823579100033,v,0.5098790410011134,None,,,,,final,001,2024-11-17_14h25.42.695,experiment,2024.1.5,None,2024-11-17 14h25.53.560476 +0530,
final_white_noise_30_right.wav,30,Right,9,3,111,3,,,,,,,,,260.7208098330011,,,,,,,,,,260.709372583,pre_test,260.7208098330011,261.21289645766797,261.2137190829999,261.7063755830004,261.7063755830004,263.4996365830011,v,1.7904932919991552,None,,,,,final,001,2024-11-17_14h25.42.695,experiment,2024.1.5,None,2024-11-17 14h25.53.560476 +0530,
final_pure_tone_30_left.wav,30,Left,9,4,112,8,,,,,,,,,263.5107335829998,,,,,,,,,,263.5002546659998,pre_test,263.5107335829998,264.00685874966643,264.006756666,264.49875200000133,264.49875200000133,264.9495637079999,c,0.44878562499980035,None,,,,,final,001,2024-11-17_14h25.42.695,experiment,2024.1.5,None,2024-11-17 14h25.53.560476 +0530,
final_pure_tone_0_left.wav,0,Left,9,5,113,10,,,,,,,,,264.9598894160008,,,,,,,,,,264.95021291600096,pre_test,264.9598894160008,265.4563833746672,265.4570267500003,265.9484254580002,265.9484254580002,266.51607375000094,c,0.5595576249997976,None,,,,,final,001,2024-11-17_14h25.42.695,experiment,2024.1.5,None,2024-11-17 14h25.53.560476 +0530,
final_pure_tone_0_right.wav,0,Right,9,6,114,11,,,,,,,,,266.52723720799986,,,,,,,,,,266.516694416001,pre_test,266.52723720799986,267.0236010416668,267.02386529100113,267.51583374999973,267.51583374999973,268.12566216600135,c,0.6005182919998333,None,,,,,final,001,2024-11-17_14h25.42.695,experiment,2024.1.5,None,2024-11-17 14h25.53.560476 +0530,
final_white_noise_0_right.wav,0,Right,9,7,115,5,,,,,,,,,268.1379607500003,,,,,,,,,,268.12683174999984,pre_test,268.1379607500003,268.63104299966676,268.6293825829998,269.1236235000015,269.1236235000015,269.84186870800113,x,0.7085417079997569,None,,,,,final,001,2024-11-17_14h25.42.695,experiment,2024.1.5,None,2024-11-17 14h25.53.560476 +0530,
final_white_noise_30_left.wav,30,Left,9,8,116,2,,,,,,,,,269.8548064580009,,,,,,,,,,269.8431670000009,pre_test,269.8548064580009,270.3469192916675,270.34716229100013,270.84013975000016,270.84013975000016,271.40018820800105,x,0.5587284579996776,None,,,,,final,001,2024-11-17_14h25.42.695,experiment,2024.1.5,None,2024-11-17 14h25.53.560476 +0530,
final_pure_tone_90_left.wav,90,Left,9,9,117,6,,,,,,,,,271.4116713750009,,,,,,,,,,271.4007983749998,pre_test,271.4116713750009,271.90687404166806,271.9066959160009,272.39948370800084,272.39948370800084,273.3087516249998,c,0.89889333300016,None,,,,,final,001,2024-11-17_14h25.42.695,experiment,2024.1.5,None,2024-11-17 14h25.53.560476 +0530,
final_white_noise_90_right.wav,90,Right,9,10,118,1,,,,,,,,,273.32009845799985,,,,,,,,,,273.31006825000077,pre_test,273.32009845799985,273.815146541667,273.8131572080001,274.3070374580002,274.3070374580002,275.1331717080011,b,0.8178597080004693,None,,,,,final,001,2024-11-17_14h25.42.695,experiment,2024.1.5,None,2024-11-17 14h25.53.560476 +0530,
final_pure_tone_90_right.wav,90,Right,9,11,119,7,,,,,,,,,275.14464670800044,,,,,,,,,,275.1338429160005,pre_test,275.14464670800044,275.6402340416664,275.64079545800087,276.1323844160015,276.1323844160015,276.59854758300025,c,0.4594845000010537,None,,,,,final,001,2024-11-17_14h25.42.695,experiment,2024.1.5,None,2024-11-17 14h25.53.560476 +0530,
final_white_noise_0_left.wav,0,Left,10,0,120,4,,,,,,,,,276.6086931660011,,,,,,,,,,276.59916591600086,pre_test,276.6086931660011,277.1076284576668,277.1071485829998,277.5985144160004,277.5985144160004,278.18249091600046,x,0.5805362079991028,None,,,,,final,001,2024-11-17_14h25.42.695,experiment,2024.1.5,None,2024-11-17 14h25.53.560476 +0530,
final_white_noise_90_left.wav,90,Left,10,1,121,0,,,,,,,,,278.20670304099986,,,,,,,,,,278.18308958300076,pre_test,278.20670304099986,278.68188016666704,278.6972157500004,279.1827669579998,279.1827669579998,279.7357448750008,z,0.5416801249994023,None,,,,,final,001,2024-11-17_14h25.42.695,experiment,2024.1.5,None,2024-11-17 14h25.53.560476 +0530,
final_pure_tone_90_right.wav,90,Right,10,2,122,7,,,,,,,,,279.7440094579997,,,,,,,,,,279.73642437499984,pre_test,279.7440094579997,280.24060204166767,280.2405535409998,280.7331750829999,280.7331750829999,281.25907612500123,b,0.5173662920005881,None,,,,,final,001,2024-11-17_14h25.42.695,experiment,2024.1.5,None,2024-11-17 14h25.53.560476 +0530,
final_pure_tone_90_left.wav,90,Left,10,3,123,6,,,,,,,,,281.2691018330006,,,,,,,,,,281.2597221249998,pre_test,281.2691018330006,281.7653703326671,281.76366583300114,282.2566503329999,282.2566503329999,282.957923416001,b,0.6964366249994782,None,,,,,final,001,2024-11-17_14h25.42.695,experiment,2024.1.5,None,2024-11-17 14h25.53.560476 +0530,
final_white_noise_30_right.wav,30,Right,10,4,124,3,,,,,,,,,282.96756079100123,,,,,,,,,,282.9585380000008,pre_test,282.96756079100123,283.46295899966776,283.4641528330012,283.9493411250005,283.9493411250005,285.05770350000057,c,1.1007824999996956,None,,,,,final,001,2024-11-17_14h25.42.695,experiment,2024.1.5,None,2024-11-17 14h25.53.560476 +0530,
final_pure_tone_30_left.wav,30,Left,10,5,125,8,,,,,,,,,285.06741987500027,,,,,,,,,,285.0583218749998,pre_test,285.06741987500027,285.5656336666673,285.56174066600033,286.04886437500136,286.04886437500136,286.40976679100095,z,0.35181687499971304,None,,,,,final,001,2024-11-17_14h25.42.695,experiment,2024.1.5,None,2024-11-17 14h25.53.560476 +0530,
final_white_noise_0_right.wav,0,Right,10,6,126,5,,,,,,,,,286.42082975000085,,,,,,,,,,286.4110612500008,pre_test,286.42082975000085,286.91546683266665,286.9134191250014,287.4073480830011,287.4073480830011,288.21690133300035,c,0.8057015419999516,None,,,,,final,001,2024-11-17_14h25.42.695,experiment,2024.1.5,None,2024-11-17 14h25.53.560476 +0530,
final_pure_tone_0_right.wav,0,Right,10,7,127,11,,,,,,,,,288.2273414580013,,,,,,,,,,288.21751225000116,pre_test,288.2273414580013,288.7239517076671,288.7241039159999,289.21637129100054,289.21637129100054,290.56682895800077,b,1.3452249999991182,None,,,,,final,001,2024-11-17_14h25.42.695,experiment,2024.1.5,None,2024-11-17 14h25.53.560476 +0530,
final_white_noise_90_right.wav,90,Right,10,8,128,1,,,,,,,,,290.5765762080009,,,,,,,,,,290.5674513330014,pre_test,290.5765762080009,291.0737066246677,291.07422258299994,291.56644470799984,291.56644470799984,293.45001675000094,c,1.881470457999967,None,,,,,final,001,2024-11-17_14h25.42.695,experiment,2024.1.5,None,2024-11-17 14h25.53.560476 +0530,
final_white_noise_30_left.wav,30,Left,10,9,129,2,,,,,,,,,293.461741000001,,,,,,,,,,293.4506351660002,pre_test,293.461741000001,293.9580501246676,293.9569747080004,294.44822295800077,294.44822295800077,294.9770654160002,x,0.5263639170007082,None,,,,,final,001,2024-11-17_14h25.42.695,experiment,2024.1.5,None,2024-11-17 14h25.53.560476 +0530,
final_pure_tone_30_right.wav,30,Right,10,10,130,9,,,,,,,,,294.98847629100055,,,,,,,,,,294.9777090000007,pre_test,294.98847629100055,295.4822442916668,295.48073512500014,295.9745937080006,295.9745937080006,296.31690904100105,v,0.3342405420007708,None,,,,,final,001,2024-11-17_14h25.42.695,experiment,2024.1.5,None,2024-11-17 14h25.53.560476 +0530,
final_pure_tone_0_left.wav,0,Left,10,11,131,10,,,,,,,,,296.32902929100055,,,,,,,,,,296.31751670800077,pre_test,296.32902929100055,296.8241267916676,296.82432320800035,297.31665050000083,297.31665050000083,297.9436412080013,v,0.6243175409999822,None,,,,,final,001,2024-11-17_14h25.42.695,experiment,2024.1.5,None,2024-11-17 14h25.53.560476 +0530,
final_pure_tone_90_left.wav,90,Left,11,0,132,6,,,,,,,,,297.95590733300014,,,,,,,,,,297.9443392909998,pre_test,297.95590733300014,298.44790341666726,298.4476626659998,298.94091395800024,298.94091395800024,299.3428179580005,x,0.39349370800118777,None,,,,,final,001,2024-11-17_14h25.42.695,experiment,2024.1.5,None,2024-11-17 14h25.53.560476 +0530,
final_pure_tone_90_right.wav,90,Right,11,1,133,7,,,,,,,,,299.3561507080012,,,,,,,,,,299.3441270830008,pre_test,299.3561507080012,299.8478904996666,299.847933291001,300.3404958330011,300.3404958330011,300.80927087500095,v,0.4592344160009816,None,,,,,final,001,2024-11-17_14h25.42.695,experiment,2024.1.5,None,2024-11-17 14h25.53.560476 +0530,
final_pure_tone_0_right.wav,0,Right,11,2,134,11,,,,,,,,,300.82011466600125,,,,,,,,,,300.81051450000086,pre_test,300.82011466600125,301.314730166667,301.31449995799994,301.80742224999995,301.80742224999995,302.34933754099984,x,0.5338948749995325,None,,,,,final,001,2024-11-17_14h25.42.695,experiment,2024.1.5,None,2024-11-17 14h25.53.560476 +0530,
final_pure_tone_30_left.wav,30,Left,11,3,135,8,,,,,,,,,302.3593892080007,,,,,,,,,,302.3499494160005,pre_test,302.3593892080007,302.8575024166678,302.8578216250007,303.34979516600106,303.34979516600106,303.9336877500009,v,0.5768632079998497,None,,,,,final,001,2024-11-17_14h25.42.695,experiment,2024.1.5,None,2024-11-17 14h25.53.560476 +0530,
final_white_noise_30_left.wav,30,Left,11,4,136,2,,,,,,,,,303.9439020000009,,,,,,,,,,303.9342913750006,pre_test,303.9439020000009,304.44060899966667,304.44121500000074,304.93363054099973,304.93363054099973,305.733878250001,c,0.7966492499999731,None,,,,,final,001,2024-11-17_14h25.42.695,experiment,2024.1.5,None,2024-11-17 14h25.53.560476 +0530,
final_white_noise_0_right.wav,0,Right,11,5,137,5,,,,,,,,,305.74436554100066,,,,,,,,,,305.73452166600146,pre_test,305.74436554100066,306.2410519166681,306.2412426250012,306.7332539580002,306.7332539580002,306.9111606250008,c,0.174926833000427,None,,,,,final,001,2024-11-17_14h25.42.695,experiment,2024.1.5,None,2024-11-17 14h25.53.560476 +0530,
final_white_noise_0_left.wav,0,Left,11,6,138,4,,,,,,,,,306.9241626660005,,,,,,,,,,306.91188591600076,pre_test,306.9241626660005,307.41501924966747,307.4145495410012,307.90829250000024,307.90829250000024,308.8997001660009,c,0.9854546669994306,None,,,,,final,001,2024-11-17_14h25.42.695,experiment,2024.1.5,None,2024-11-17 14h25.53.560476 +0530,
final_pure_tone_0_left.wav,0,Left,11,7,139,10,,,,,,,,,308.9242240830008,,,,,,,,,,308.9003190000003,pre_test,308.9242240830008,309.4079152916677,309.4125423330006,309.8974772500005,309.8974772500005,311.3332523750014,z,1.4338750000006257,None,,,,,final,001,2024-11-17_14h25.42.695,experiment,2024.1.5,None,2024-11-17 14h25.53.560476 +0530,
final_white_noise_90_left.wav,90,Left,11,8,140,0,,,,,,,,,311.344975041,,,,,,,,,,311.33390212500126,pre_test,311.344975041,311.8410281666677,311.84141491599985,312.33350045800034,312.33350045800034,312.76705579100053,z,0.4302911250015313,None,,,,,final,001,2024-11-17_14h25.42.695,experiment,2024.1.5,None,2024-11-17 14h25.53.560476 +0530,
final_white_noise_90_right.wav,90,Right,11,9,141,1,,,,,,,,,312.77750150000065,,,,,,,,,,312.7676680830009,pre_test,312.77750150000065,313.27413837466725,313.27499595800145,313.76696045800054,313.76696045800054,313.9107358750007,b,0.14102304199877835,None,,,,,final,001,2024-11-17_14h25.42.695,experiment,2024.1.5,None,2024-11-17 14h25.53.560476 +0530,
final_pure_tone_30_right.wav,30,Right,11,10,142,9,,,,,,,,,313.92068420800024,,,,,,,,,,313.9113352080003,pre_test,313.92068420800024,314.4158819996667,314.4141646250009,314.9082739160003,314.9082739160003,315.27659400000084,c,0.36269970899957116,None,,,,,final,001,2024-11-17_14h25.42.695,experiment,2024.1.5,None,2024-11-17 14h25.53.560476 +0530,
final_white_noise_30_right.wav,30,Right,11,11,143,3,,,,,,,,,315.28972870800135,,,,,,,,,,315.2779392909997,pre_test,315.28972870800135,315.7828213326668,315.7801144160003,316.27493858300113,316.27493858300113,316.88402124999993,v,0.6042510000006587,None,,,,,final,001,2024-11-17_14h25.42.695,experiment,2024.1.5,None,2024-11-17 14h25.53.560476 +0530,
final_white_noise_30_left.wav,30,Left,12,0,144,2,,,,,,,,,316.89444204100073,,,,,,,,,,316.8846777910003,pre_test,316.89444204100073,317.3909280416667,317.3914694160012,317.88382470800025,317.88382470800025,318.148275208001,v,0.25989970800037554,None,,,,,final,001,2024-11-17_14h25.42.695,experiment,2024.1.5,None,2024-11-17 14h25.53.560476 +0530,
final_pure_tone_30_left.wav,30,Left,12,1,145,8,,,,,,,,,318.1584254999998,,,,,,,,,,318.148886166,pre_test,318.1584254999998,318.64878904166676,318.64804829100103,319.1412799999998,319.1412799999998,319.36647408300087,x,0.2171909170010622,None,,,,,final,001,2024-11-17_14h25.42.695,experiment,2024.1.5,None,2024-11-17 14h25.53.560476 +0530,
final_pure_tone_90_right.wav,90,Right,12,2,146,7,,,,,,,,,319.3909372910002,,,,,,,,,,319.3671140410006,pre_test,319.3909372910002,319.86620616666755,319.88113133300067,320.36664720800036,320.36664720800036,321.2279197080006,c,0.8576811249986349,None,,,,,final,001,2024-11-17_14h25.42.695,experiment,2024.1.5,None,2024-11-17 14h25.53.560476 +0530,
final_pure_tone_0_left.wav,0,Left,12,3,147,10,,,,,,,,,321.2385453750012,,,,,,,,,,321.2286341660001,pre_test,321.2385453750012,321.7328618326667,321.72977362500023,322.2244335410014,322.2244335410014,322.6340357910012,x,0.40816925000035553,None,,,,,final,001,2024-11-17_14h25.42.695,experiment,2024.1.5,None,2024-11-17 14h25.53.560476 +0530,
final_white_noise_0_right.wav,0,Right,12,4,148,5,,,,,,,,,322.64430045800145,,,,,,,,,,322.6346422080005,pre_test,322.64430045800145,323.1411803746671,323.1419147910001,323.6321751249998,323.6321751249998,324.050179666001,c,0.4124332499995944,None,,,,,final,001,2024-11-17_14h25.42.695,experiment,2024.1.5,None,2024-11-17 14h25.53.560476 +0530,
final_pure_tone_90_left.wav,90,Left,12,5,149,6,,,,,,,,,324.0614239160004,,,,,,,,,,324.0507995000007,pre_test,324.0614239160004,324.5583045416681,324.5580267910009,325.0511282080006,325.0511282080006,326.2344804580007,z,1.180783916001019,None,,,,,final,001,2024-11-17_14h25.42.695,experiment,2024.1.5,None,2024-11-17 14h25.53.560476 +0530,
final_white_noise_90_right.wav,90,Right,12,6,150,1,,,,,,,,,326.2450432500009,,,,,,,,,,326.23514679100117,pre_test,326.2450432500009,326.741058374668,326.7416417500008,327.23333795800136,327.23333795800136,328.1920600000012,b,0.954350042000442,None,,,,,final,001,2024-11-17_14h25.42.695,experiment,2024.1.5,None,2024-11-17 14h25.53.560476 +0530,
final_pure_tone_0_right.wav,0,Right,12,7,151,11,,,,,,,,,328.20161183300115,,,,,,,,,,328.1927059999998,pre_test,328.20161183300115,328.69877416666736,328.6965959580011,329.1845225830002,329.1845225830002,329.69862858300075,c,0.5081918329997279,None,,,,,final,001,2024-11-17_14h25.42.695,experiment,2024.1.5,None,2024-11-17 14h25.53.560476 +0530,
final_white_noise_30_right.wav,30,Right,12,8,152,3,,,,,,,,,329.70913058299993,,,,,,,,,,329.6992408750011,pre_test,329.70913058299993,330.20007724966695,330.20858062499974,330.6918751250014,330.6918751250014,330.94466279100016,v,0.25008387500020035,None,,,,,final,001,2024-11-17_14h25.42.695,experiment,2024.1.5,None,2024-11-17 14h25.53.560476 +0530,
final_pure_tone_30_right.wav,30,Right,12,9,153,9,,,,,,,,,330.9551721250009,,,,,,,,,,330.94558733300073,pre_test,330.9551721250009,331.4500221246674,331.44810883300124,331.9413383330011,331.9413383330011,332.82656283300093,c,0.8793764160000137,None,,,,,final,001,2024-11-17_14h25.42.695,experiment,2024.1.5,None,2024-11-17 14h25.53.560476 +0530,
final_white_noise_90_left.wav,90,Left,12,10,154,0,,,,,,,,,332.8366869580004,,,,,,,,,,332.82720066600086,pre_test,332.8366869580004,333.3321962076682,333.3317590410006,333.8244878330006,333.8244878330006,334.00015633300063,x,0.16781237499890267,None,,,,,final,001,2024-11-17_14h25.42.695,experiment,2024.1.5,None,2024-11-17 14h25.53.560476 +0530,
final_white_noise_0_left.wav,0,Left,12,11,155,4,,,,,,,,,334.0246079999997,,,,,,,,,,334.0007731660007,pre_test,334.0246079999997,334.5082262916678,334.51280125000085,335.0002545410007,335.0002545410007,335.5514741250008,x,0.5499515419996897,None,,,,,final,001,2024-11-17_14h25.42.695,experiment,2024.1.5,None,2024-11-17 14h25.53.560476 +0530,
final_white_noise_90_right.wav,90,Right,13,0,156,1,,,,,,,,,335.5612336250015,,,,,,,,,,335.5520754580011,pre_test,335.5612336250015,336.05854254166684,336.058368,336.55043533299977,336.55043533299977,336.8847673750006,v,0.32651570799862384,None,,,,,final,001,2024-11-17_14h25.42.695,experiment,2024.1.5,None,2024-11-17 14h25.53.560476 +0530,
final_white_noise_30_left.wav,30,Left,13,1,157,2,,,,,,,,,336.8949530000009,,,,,,,,,,336.88541137500033,pre_test,336.8949530000009,337.3913792916667,337.3918638330015,337.8836444580011,337.8836444580011,338.11019237500113,x,0.21717516700118722,None,,,,,final,001,2024-11-17_14h25.42.695,experiment,2024.1.5,None,2024-11-17 14h25.53.560476 +0530,
final_pure_tone_90_right.wav,90,Right,13,2,158,7,,,,,,,,,338.1210029160011,,,,,,,,,,338.11149741600093,pre_test,338.1210029160011,338.61657479166774,338.61298437500045,339.108332541,339.108332541,339.42738579100114,b,0.31268262499906996,None,,,,,final,001,2024-11-17_14h25.42.695,experiment,2024.1.5,None,2024-11-17 14h25.53.560476 +0530,
final_white_noise_30_right.wav,30,Right,13,3,159,3,,,,,,,,,339.4378999159999,,,,,,,,,,339.428527166001,pre_test,339.4378999159999,339.93275224966806,339.9314551660009,340.42520379100097,340.42520379100097,340.97649216600075,v,0.5427455839999311,None,,,,,final,001,2024-11-17_14h25.42.695,experiment,2024.1.5,None,2024-11-17 14h25.53.560476 +0530,
final_pure_tone_0_left.wav,0,Left,13,4,160,10,,,,,,,,,340.9869442910003,,,,,,,,,,340.97755875000075,pre_test,340.9869442910003,341.48399720766815,341.48177408300035,341.975599708001,341.975599708001,342.1768507500001,c,0.19588766600099916,None,,,,,final,001,2024-11-17_14h25.42.695,experiment,2024.1.5,None,2024-11-17 14h25.53.560476 +0530,
final_white_noise_0_right.wav,0,Right,13,5,161,5,,,,,,,,,342.1880114579999,,,,,,,,,,342.17803487499987,pre_test,342.1880114579999,342.6838091246666,342.6795996660003,343.1753896250011,343.1753896250011,343.3683308330001,x,0.18683054199937033,None,,,,,final,001,2024-11-17_14h25.42.695,experiment,2024.1.5,None,2024-11-17 14h25.53.560476 +0530,
final_pure_tone_30_right.wav,30,Right,13,6,162,9,,,,,,,,,343.3799904160005,,,,,,,,,,343.3689985410001,pre_test,343.3799904160005,343.874680541667,343.87542066600145,344.3678180830011,344.3678180830011,344.95084708300055,c,0.5766189579990169,None,,,,,final,001,2024-11-17_14h25.42.695,experiment,2024.1.5,None,2024-11-17 14h25.53.560476 +0530,
final_white_noise_0_left.wav,0,Left,13,7,163,4,,,,,,,,,344.9608255000003,,,,,,,,,,344.95151791600074,pre_test,344.9608255000003,345.4581147496667,345.45873262500027,345.9506706660013,345.9506706660013,346.28422995800065,v,0.325217875000817,None,,,,,final,001,2024-11-17_14h25.42.695,experiment,2024.1.5,None,2024-11-17 14h25.53.560476 +0530,
final_white_noise_90_left.wav,90,Left,13,8,164,0,,,,,,,,,346.2958090000011,,,,,,,,,,346.2849019580008,pre_test,346.2958090000011,346.78382524966787,346.7920242910004,347.28228095800114,347.28228095800114,347.54428491600083,x,0.2569562919998134,None,,,,,final,001,2024-11-17_14h25.42.695,experiment,2024.1.5,None,2024-11-17 14h25.53.560476 +0530,
final_pure_tone_0_right.wav,0,Right,13,9,165,11,,,,,,,,,347.55668754100043,,,,,,,,,,347.544931583001,pre_test,347.55668754100043,348.0493503746677,348.048765208001,348.5418223329998,348.5418223329998,349.22725729100057,c,0.6813792080010899,None,,,,,final,001,2024-11-17_14h25.42.695,experiment,2024.1.5,None,2024-11-17 14h25.53.560476 +0530,
final_pure_tone_30_left.wav,30,Left,13,10,166,8,,,,,,,,,349.23982270800116,,,,,,,,,,349.22852054100076,pre_test,349.23982270800116,349.73362858266796,349.731076125001,350.2255260000002,350.2255260000002,350.48364766600025,c,0.24971833299969148,None,,,,,final,001,2024-11-17_14h25.42.695,experiment,2024.1.5,None,2024-11-17 14h25.53.560476 +0530,
final_pure_tone_90_left.wav,90,Left,13,11,167,6,,,,,,,,,350.4960387910014,,,,,,,,,,350.4849523749999,pre_test,350.4960387910014,350.9923630416672,350.99214066600143,351.4843952500014,351.4843952500014,352.5114685410008,v,1.0244894580009714,None,,,,,final,001,2024-11-17_14h25.42.695,experiment,2024.1.5,None,2024-11-17 14h25.53.560476 +0530,
final_white_noise_0_left.wav,0,Left,14,0,168,4,,,,,,,,,352.5219799160004,,,,,,,,,,352.5121876660014,pre_test,352.5219799160004,353.01665020766654,353.014896916,353.50862233299995,353.50862233299995,354.27780241599976,c,0.766974249998384,None,,,,,final,001,2024-11-17_14h25.42.695,experiment,2024.1.5,None,2024-11-17 14h25.53.560476 +0530,
final_pure_tone_0_right.wav,0,Right,14,1,169,11,,,,,,,,,354.2877552910013,,,,,,,,,,354.2784417080002,pre_test,354.2877552910013,354.78371404166705,354.7808475410002,355.27551233300073,355.27551233300073,356.50934920800137,c,1.23082712500036,None,,,,,final,001,2024-11-17_14h25.42.695,experiment,2024.1.5,None,2024-11-17 14h25.53.560476 +0530,
final_white_noise_30_right.wav,30,Right,14,2,170,3,,,,,,,,,356.5189950410004,,,,,,,,,,356.5099352500001,pre_test,356.5189950410004,357.01606562466645,357.0155857910013,357.4997912079998,357.4997912079998,357.8014279580002,b,0.2968216659992322,None,,,,,final,001,2024-11-17_14h25.42.695,experiment,2024.1.5,None,2024-11-17 14h25.53.560476 +0530,
final_white_noise_30_left.wav,30,Left,14,3,171,2,,,,,,,,,357.8114848330006,,,,,,,,,,357.8020862499998,pre_test,357.8114848330006,358.30876016666684,358.3094634580011,358.80154200000106,358.80154200000106,359.74413045800065,z,0.9372266669997771,None,,,,,final,001,2024-11-17_14h25.42.695,experiment,2024.1.5,None,2024-11-17 14h25.53.560476 +0530,
final_white_noise_0_right.wav,0,Right,14,4,172,5,,,,,,,,,359.7549064160012,,,,,,,,,,359.74542666600064,pre_test,359.7549064160012,360.2498491246681,360.248706458,360.7421613330007,360.7421613330007,360.9954407080004,x,0.2506479580006271,None,,,,,final,001,2024-11-17_14h25.42.695,experiment,2024.1.5,None,2024-11-17 14h25.53.560476 +0530,
final_pure_tone_90_left.wav,90,Left,14,5,173,6,,,,,,,,,361.00626750000083,,,,,,,,,,360.9960673330006,pre_test,361.00626750000083,361.50035620766744,361.4987099580012,361.9925212500002,361.9925212500002,362.4443176250006,x,0.4452768749997631,None,,,,,final,001,2024-11-17_14h25.42.695,experiment,2024.1.5,None,2024-11-17 14h25.53.560476 +0530,
final_pure_tone_0_left.wav,0,Left,14,6,174,10,,,,,,,,,362.45564266600013,,,,,,,,,,362.44504708299974,pre_test,362.45564266600013,362.9485182496667,362.94673412500015,363.4426559580006,363.4426559580006,363.6523030410008,v,0.20701245800046308,None,,,,,final,001,2024-11-17_14h25.42.695,experiment,2024.1.5,None,2024-11-17 14h25.53.560476 +0530,
final_white_noise_90_left.wav,90,Left,14,7,175,0,,,,,,,,,363.6634457910004,,,,,,,,,,363.6529371659999,pre_test,363.6634457910004,364.15877608266806,364.1591965410007,364.6511134580014,364.6511134580014,365.0505588750002,z,0.3932223330011766,None,,,,,final,001,2024-11-17_14h25.42.695,experiment,2024.1.5,None,2024-11-17 14h25.53.560476 +0530,
final_pure_tone_30_right.wav,30,Right,14,8,176,9,,,,,,,,,365.06260579100126,,,,,,,,,,365.051235541001,pre_test,365.06260579100126,365.55080549966647,365.5591385000007,366.0512206660005,366.0512206660005,366.61078545800046,b,0.551352708000195,None,,,,,final,001,2024-11-17_14h25.42.695,experiment,2024.1.5,None,2024-11-17 14h25.53.560476 +0530,
final_pure_tone_30_left.wav,30,Left,14,9,177,8,,,,,,,,,366.6215080000002,,,,,,,,,,366.6114511249998,pre_test,366.6215080000002,367.11586574966736,367.1162440830012,367.60900079100065,367.60900079100065,368.89419850000013,c,1.2815709589995095,None,,,,,final,001,2024-11-17_14h25.42.695,experiment,2024.1.5,None,2024-11-17 14h25.53.560476 +0530,
final_pure_tone_90_right.wav,90,Right,14,10,178,7,,,,,,,,,368.90644000000066,,,,,,,,,,368.8954923750007,pre_test,368.90644000000066,369.4003635416668,369.3989166250012,369.89201854100065,369.89201854100065,372.0021852500013,c,2.1014669579999463,None,,,,,final,001,2024-11-17_14h25.42.695,experiment,2024.1.5,None,2024-11-17 14h25.53.560476 +0530,
final_white_noise_90_right.wav,90,Right,14,11,179,1,,,,,,,,,372.01352795800085,,,,,,,,,,372.0027998750011,pre_test,372.01352795800085,372.5087401246676,372.5089840410001,373.0010500410008,373.0010500410008,373.25430083300125,v,0.24205712500042864,None,,,,,final,001,2024-11-17_14h25.42.695,experiment,2024.1.5,None,2024-11-17 14h25.53.560476 +0530,
final_pure_tone_30_right.wav,30,Right,15,0,180,9,,,,,,,,,373.26249358300083,,,,,,,,,,373.2549245830014,pre_test,373.26249358300083,373.75874516666795,373.75927854099973,374.25271495800007,374.25271495800007,374.4612834159998,b,0.20626795800126274,None,,,,,final,001,2024-11-17_14h25.42.695,experiment,2024.1.5,None,2024-11-17 14h25.53.560476 +0530,
final_pure_tone_0_right.wav,0,Right,15,1,181,11,,,,,,,,,374.47120837500006,,,,,,,,,,374.46192558300027,pre_test,374.47120837500006,374.9666153326673,374.96566150000035,375.45941554100136,375.45941554100136,375.6682818750014,c,0.20054737500140618,None,,,,,final,001,2024-11-17_14h25.42.695,experiment,2024.1.5,None,2024-11-17 14h25.53.560476 +0530,
final_pure_tone_30_left.wav,30,Left,15,2,182,8,,,,,,,,,375.6781336660006,,,,,,,,,,375.66895129099976,pre_test,375.6781336660006,376.1758038746668,376.1759761660014,376.66847400000006,376.66847400000006,376.7780719580005,v,0.10381358300037391,None,,,,,final,001,2024-11-17_14h25.42.695,experiment,2024.1.5,None,2024-11-17 14h25.53.560476 +0530,
final_pure_tone_90_right.wav,90,Right,15,3,183,7,,,,,,,,,376.7882790830008,,,,,,,,,,376.7789154580005,pre_test,376.7882790830008,377.2829926666675,377.2828012500013,377.7753472080003,377.7753472080003,378.0289612910001,c,0.2510180000008404,None,,,,,final,001,2024-11-17_14h25.42.695,experiment,2024.1.5,None,2024-11-17 14h25.53.560476 +0530,
final_pure_tone_90_left.wav,90,Left,15,4,184,6,,,,,,,,,378.0422481660007,,,,,,,,,,378.0302069160007,pre_test,378.0422481660007,378.53339124966647,378.5327776660015,379.02554908300044,379.02554908300044,381.0020948330002,c,1.972044125001048,None,,,,,final,001,2024-11-17_14h25.42.695,experiment,2024.1.5,None,2024-11-17 14h25.53.560476 +0530,
final_pure_tone_0_left.wav,0,Left,15,5,185,10,,,,,,,,,381.01241370800017,,,,,,,,,,381.0027718750007,pre_test,381.01241370800017,381.5088614576673,381.50940895799977,382.0012127500013,382.0012127500013,382.1210982909997,v,0.10871641699850443,None,,,,,final,001,2024-11-17_14h25.42.695,experiment,2024.1.5,None,2024-11-17 14h25.53.560476 +0530,
final_white_noise_90_left.wav,90,Left,15,6,186,0,,,,,,,,,382.1292402500003,,,,,,,,,,382.12172875000033,pre_test,382.1292402500003,382.62612412466683,382.6257643750014,383.11860816599983,383.11860816599983,384.24391425000067,x,1.1172564169992256,None,,,,,final,001,2024-11-17_14h25.42.695,experiment,2024.1.5,None,2024-11-17 14h25.53.560476 +0530,
final_white_noise_0_right.wav,0,Right,15,7,187,5,,,,,,,,,384.25440129100025,,,,,,,,,,384.24458287500056,pre_test,384.25440129100025,384.7505697916679,384.7490265410015,385.24251362500036,385.24251362500036,385.32814066600076,c,0.08052904099895386,None,,,,,final,001,2024-11-17_14h25.42.695,experiment,2024.1.5,None,2024-11-17 14h25.53.560476 +0530,
final_white_noise_0_left.wav,0,Left,15,8,188,4,,,,,,,,,385.339715125001,,,,,,,,,,385.32880029100124,pre_test,385.339715125001,385.83190570766806,385.8334984580015,386.3264838750001,386.3264838750001,386.7784592910011,b,0.44263191599929996,None,,,,,final,001,2024-11-17_14h25.42.695,experiment,2024.1.5,None,2024-11-17 14h25.53.560476 +0530,
final_white_noise_90_right.wav,90,Right,15,9,189,1,,,,,,,,,386.7893772910011,,,,,,,,,,386.77957779100143,pre_test,386.7893772910011,387.2835927496674,387.28256737500124,387.77623808300086,387.77623808300086,388.91223058300056,b,1.1335844999994151,None,,,,,final,001,2024-11-17_14h25.42.695,experiment,2024.1.5,None,2024-11-17 14h25.53.560476 +0530,
final_white_noise_30_left.wav,30,Left,15,10,190,2,,,,,,,,,388.9221075410005,,,,,,,,,,388.91291637500035,pre_test,388.9221075410005,389.4174789576666,389.4163461250009,389.90966237500106,389.90966237500106,391.1450897499999,z,1.2300684590009041,None,,,,,final,001,2024-11-17_14h25.42.695,experiment,2024.1.5,None,2024-11-17 14h25.53.560476 +0530,
final_white_noise_30_right.wav,30,Right,15,11,191,3,,,,,,,,,391.1560719580011,,,,,,,,,,391.1464303749999,pre_test,391.1560719580011,391.65082120766806,391.64936991600007,392.14327354099987,392.14327354099987,392.9682425830015,v,0.8166882080004143,None,,,,,final,001,2024-11-17_14h25.42.695,experiment,2024.1.5,None,2024-11-17 14h25.53.560476 +0530,
final_pure_tone_30_right.wav,30,Right,16,0,192,9,,,,,,,,,392.99244612500115,,,,,,,,,,392.9688572080013,pre_test,392.99244612500115,393.467960416667,393.4830346660001,393.96881991600094,393.96881991600094,396.9033182910007,x,2.925822708000851,None,,,,,final,001,2024-11-17_14h25.42.695,experiment,2024.1.5,None,2024-11-17 14h25.53.560476 +0530,
final_white_noise_30_left.wav,30,Left,16,1,193,2,,,,,,,,,396.91354654099996,,,,,,,,,,396.90409033300057,pre_test,396.91354654099996,397.40926437466646,397.4098980409999,397.9018461659998,397.9018461659998,400.3525389580009,z,2.4435758750005334,None,,,,,final,001,2024-11-17_14h25.42.695,experiment,2024.1.5,None,2024-11-17 14h25.53.560476 +0530,
final_white_noise_90_right.wav,90,Right,16,2,194,1,,,,,,,,,400.3629793330001,,,,,,,,,,400.35320624999986,pre_test,400.3629793330001,400.859807832667,400.8601180000005,401.3524616659997,401.3524616659997,401.66913875000137,b,0.3140506669988099,None,,,,,final,001,2024-11-17_14h25.42.695,experiment,2024.1.5,None,2024-11-17 14h25.53.560476 +0530,
final_pure_tone_90_left.wav,90,Left,16,3,195,6,,,,,,,,,401.68098404100056,,,,,,,,,,401.6700931659998,pre_test,401.68098404100056,402.17603566666753,402.1767156250007,402.66889825,402.66889825,403.0025445830015,c,0.3322836669995013,None,,,,,final,001,2024-11-17_14h25.42.695,experiment,2024.1.5,None,2024-11-17 14h25.53.560476 +0530,
final_pure_tone_90_right.wav,90,Right,16,4,196,7,,,,,,,,,403.01420487500036,,,,,,,,,,403.00321450000047,pre_test,403.01420487500036,403.51036587466683,403.5097157500004,404.00010812500113,404.00010812500113,404.10182350000105,c,0.10018462500011083,None,,,,,final,001,2024-11-17_14h25.42.695,experiment,2024.1.5,None,2024-11-17 14h25.53.560476 +0530,
final_pure_tone_30_left.wav,30,Left,16,5,197,8,,,,,,,,,404.11286366600143,,,,,,,,,,404.10242075000133,pre_test,404.11286366600143,404.60940487466746,404.6100474579998,405.10299929100074,405.10299929100074,405.46269316600046,x,0.3570670000008249,None,,,,,final,001,2024-11-17_14h25.42.695,experiment,2024.1.5,None,2024-11-17 14h25.53.560476 +0530,
final_white_noise_0_left.wav,0,Left,16,6,198,4,,,,,,,,,405.47393216599994,,,,,,,,,,405.4638674580001,pre_test,405.47393216599994,405.96819908266684,405.96636300000137,406.46053129100073,406.46053129100073,406.7359354580003,c,0.2686685419994319,None,,,,,final,001,2024-11-17_14h25.42.695,experiment,2024.1.5,None,2024-11-17 14h25.53.560476 +0530,
final_pure_tone_0_right.wav,0,Right,16,7,199,11,,,,,,,,,406.747195291,,,,,,,,,,406.7365608330001,pre_test,406.747195291,407.2433908746664,407.2433768330011,407.73521220800103,407.73521220800103,408.5525117500001,v,0.8116602080008306,None,,,,,final,001,2024-11-17_14h25.42.695,experiment,2024.1.5,None,2024-11-17 14h25.53.560476 +0530,
final_pure_tone_0_left.wav,0,Left,16,8,200,10,,,,,,,,,408.5639176250006,,,,,,,,,,408.55311654100115,pre_test,408.5639176250006,409.0604751666672,409.05985175000023,409.5520391660011,409.5520391660011,410.02742899999976,c,0.47212566700000025,None,,,,,final,001,2024-11-17_14h25.42.695,experiment,2024.1.5,None,2024-11-17 14h25.53.560476 +0530,
final_white_noise_0_right.wav,0,Right,16,9,201,5,,,,,,,,,410.0382261249997,,,,,,,,,,410.0280679160005,pre_test,410.0382261249997,410.5325942496677,410.5339382910006,411.02685491600096,411.02685491600096,411.645665,c,0.6069261669999833,None,,,,,final,001,2024-11-17_14h25.42.695,experiment,2024.1.5,None,2024-11-17 14h25.53.560476 +0530,
final_white_noise_90_left.wav,90,Left,16,10,202,0,,,,,,,,,411.65820054100004,,,,,,,,,,411.64692900000045,pre_test,411.65820054100004,412.15152012466774,412.14865808300056,412.64401095799985,412.64401095799985,414.3439382910001,z,1.6930379589994118,None,,,,,final,001,2024-11-17_14h25.42.695,experiment,2024.1.5,None,2024-11-17 14h25.53.560476 +0530,
final_white_noise_30_right.wav,30,Right,16,11,203,3,,,,,,,,,414.3558453330006,,,,,,,,,,414.3445507080014,pre_test,414.3558453330006,414.8501678326668,414.8504460000004,415.3357094160001,415.3357094160001,415.78601729100046,b,0.445635834001223,None,,,,,final,001,2024-11-17_14h25.42.695,experiment,2024.1.5,None,2024-11-17 14h25.53.560476 +0530,
final_pure_tone_90_right.wav,90,Right,17,0,204,7,,,,,,,,,415.7964881250009,,,,,,,,,,415.7866242079999,pre_test,415.7964881250009,416.29338441666755,416.29353604100106,416.7854893750009,416.7854893750009,416.9669270410013,v,0.17903195899998536,None,,,,,final,001,2024-11-17_14h25.42.695,experiment,2024.1.5,None,2024-11-17 14h25.53.560476 +0530,
final_pure_tone_30_left.wav,30,Left,17,1,205,8,,,,,,,,,416.9774715830008,,,,,,,,,,416.96756412500145,pre_test,416.9774715830008,417.46852849966695,417.47696141600136,417.96893850000015,417.96893850000015,418.1027141250015,x,0.12844104199939466,None,,,,,final,001,2024-11-17_14h25.42.695,experiment,2024.1.5,None,2024-11-17 14h25.53.560476 +0530,
final_white_noise_0_right.wav,0,Right,17,2,206,5,,,,,,,,,418.11360270800105,,,,,,,,,,418.1040657909998,pre_test,418.11360270800105,418.6099095826669,418.6103132500011,419.1014167909998,419.1014167909998,419.5697277500003,c,0.4632096660006937,None,,,,,final,001,2024-11-17_14h25.42.695,experiment,2024.1.5,None,2024-11-17 14h25.53.560476 +0530,
final_white_noise_0_left.wav,0,Left,17,3,207,4,,,,,,,,,419.57959658300024,,,,,,,,,,419.57040762500037,pre_test,419.57959658300024,420.07668454166765,420.07692945800045,420.56828470800065,420.56828470800065,420.9124135410002,c,0.3391474170002766,None,,,,,final,001,2024-11-17_14h25.42.695,experiment,2024.1.5,None,2024-11-17 14h25.53.560476 +0530,
final_white_noise_30_right.wav,30,Right,17,4,208,3,,,,,,,,,420.92256587500015,,,,,,,,,,420.9130431250014,pre_test,420.92256587500015,421.4177216666669,421.4169352910012,421.9100795410013,421.9100795410013,422.2612766250004,z,0.34768529199936893,None,,,,,final,001,2024-11-17_14h25.42.695,experiment,2024.1.5,None,2024-11-17 14h25.53.560476 +0530,
final_pure_tone_30_right.wav,30,Right,17,5,209,9,,,,,,,,,422.27286629100126,,,,,,,,,,422.2618869580001,pre_test,422.27286629100126,422.767648457668,422.7653553750006,423.25262833300076,423.25262833300076,423.6954705830012,c,0.4354187910012115,None,,,,,final,001,2024-11-17_14h25.42.695,experiment,2024.1.5,None,2024-11-17 14h25.53.560476 +0530,
final_white_noise_90_right.wav,90,Right,17,6,210,1,,,,,,,,,423.7056593750003,,,,,,,,,,423.6961229160006,pre_test,423.7056593750003,424.20099495766794,424.20028858300066,424.6940985830006,424.6940985830006,424.9720003750008,b,0.2667184170004475,None,,,,,final,001,2024-11-17_14h25.42.695,experiment,2024.1.5,None,2024-11-17 14h25.53.560476 +0530,
final_pure_tone_0_right.wav,0,Right,17,7,211,11,,,,,,,,,424.98022070800107,,,,,,,,,,424.9726614580013,pre_test,424.98022070800107,425.47691449966646,425.4769997080002,425.96766679100074,425.96766679100074,426.0608553330003,v,None,None,,,,,final,001,2024-11-17_14h25.42.695,experiment,2024.1.5,None,2024-11-17 14h25.53.560476 +0530,
final_pure_tone_0_left.wav,0,Left,17,8,212,10,,,,,,,,,426.0713664160012,,,,,,,,,,426.06367345800027,pre_test,426.0713664160012,426.56848429166735,426.56579333300033,427.0606905830009,427.0606905830009,427.28585966600076,v,0.2170600409990584,None,,,,,final,001,2024-11-17_14h25.42.695,experiment,2024.1.5,None,2024-11-17 14h25.53.560476 +0530,
final_white_noise_90_left.wav,90,Left,17,9,213,0,,,,,,,,,427.29592520799997,,,,,,,,,,427.2865337910007,pre_test,427.29592520799997,427.79323837466677,427.79375400000026,428.28646237500107,428.28646237500107,428.4777048750002,x,0.18100425000011455,None,,,,,final,001,2024-11-17_14h25.42.695,experiment,2024.1.5,None,2024-11-17 14h25.53.560476 +0530,
final_white_noise_30_left.wav,30,Left,17,10,214,2,,,,,,,,,428.48752950000016,,,,,,,,,,428.4783572080014,pre_test,428.48752950000016,428.9840894996671,428.9838939580004,429.46900025000105,429.46900025000105,429.9027542500007,z,0.42909891699855507,None,,,,,final,001,2024-11-17_14h25.42.695,experiment,2024.1.5,None,2024-11-17 14h25.53.560476 +0530,
final_pure_tone_90_left.wav,90,Left,17,11,215,6,,,,,,,,,429.912558,,,,,,,,,,429.90336583300086,pre_test,429.912558,430.4102852076669,430.4105389160013,430.9030350000012,430.9030350000012,431.53618583299976,c,0.6313393329983228,None,,,,,final,001,2024-11-17_14h25.42.695,experiment,2024.1.5,None,2024-11-17 14h25.53.560476 +0530,
final_white_noise_0_left.wav,0,Left,18,0,216,4,,,,,,,,,431.5461247910007,,,,,,,,,,431.5368486660009,pre_test,431.5461247910007,432.04361570766764,432.04383662500004,432.5353209160003,432.5353209160003,432.80301362499995,v,0.26301170800070395,None,,,,,final,001,2024-11-17_14h25.42.695,experiment,2024.1.5,None,2024-11-17 14h25.53.560476 +0530,
final_pure_tone_30_left.wav,30,Left,18,1,217,8,,,,,,,,,432.8134170000012,,,,,,,,,,432.80364720800026,pre_test,432.8134170000012,433.31108916666767,433.31059483300123,433.80260616600026,433.80260616600026,434.2038274580009,v,0.3998512079997454,None,,,,,final,001,2024-11-17_14h25.42.695,experiment,2024.1.5,None,2024-11-17 14h25.53.560476 +0530,
final_white_noise_30_left.wav,30,Left,18,2,218,2,,,,,,,,,434.21418291600094,,,,,,,,,,434.20447650000096,pre_test,434.21418291600094,434.7106294166681,434.71065966600145,435.20242945800055,435.20242945800055,435.220028791,c,0.011782500001572771,None,,,,,final,001,2024-11-17_14h25.42.695,experiment,2024.1.5,None,2024-11-17 14h25.53.560476 +0530,
final_white_noise_90_left.wav,90,Left,18,3,219,0,,,,,,,,,435.22967866600084,,,,,,,,,,435.2206758330012,pre_test,435.22967866600084,435.7268195416675,435.72728912500133,436.21876679100023,436.21876679100023,436.4302256660012,z,0.20866799999930663,None,,,,,final,001,2024-11-17_14h25.42.695,experiment,2024.1.5,None,2024-11-17 14h25.53.560476 +0530,
final_white_noise_90_right.wav,90,Right,18,4,220,1,,,,,,,,,436.4409962910013,,,,,,,,,,436.4313306660006,pre_test,436.4409962910013,436.93573199966727,436.93164058300135,437.4273122499999,437.4273122499999,437.6537150410004,v,0.2184822079998412,None,,,,,final,001,2024-11-17_14h25.42.695,experiment,2024.1.5,None,2024-11-17 14h25.53.560476 +0530,
final_pure_tone_0_right.wav,0,Right,18,5,221,11,,,,,,,,,437.66396950000126,,,,,,,,,,437.6543305410014,pre_test,437.66396950000126,438.16106833266736,438.16079358299976,438.65289075000146,438.65289075000146,439.6368613750001,c,0.9764242920009565,None,,,,,final,001,2024-11-17_14h25.42.695,experiment,2024.1.5,None,2024-11-17 14h25.53.560476 +0530,
final_white_noise_0_right.wav,0,Right,18,6,222,5,,,,,,,,,439.64706045800085,,,,,,,,,,439.6374662500002,pre_test,439.64706045800085,440.1438640416675,440.14420662500015,440.6359474159999,440.6359474159999,440.93665220799994,x,0.2988448750002135,None,,,,,final,001,2024-11-17_14h25.42.695,experiment,2024.1.5,None,2024-11-17 14h25.53.560476 +0530,
final_pure_tone_90_right.wav,90,Right,18,7,223,7,,,,,,,,,440.94651375000103,,,,,,,,,,440.93725150000137,pre_test,440.94651375000103,441.44363833266675,441.44418550000046,441.9357757500002,441.9357757500002,442.8697074160009,v,0.9296391249990847,None,,,,,final,001,2024-11-17_14h25.42.695,experiment,2024.1.5,None,2024-11-17 14h25.53.560476 +0530,
final_white_noise_30_right.wav,30,Right,18,8,224,3,,,,,,,,,442.87996129100065,,,,,,,,,,442.8703274159998,pre_test,442.87996129100065,443.3772119166681,443.37746645800144,443.8699802500014,443.8699802500014,444.1034505000007,b,0.22858420800002932,None,,,,,final,001,2024-11-17_14h25.42.695,experiment,2024.1.5,None,2024-11-17 14h25.53.560476 +0530,
final_pure_tone_90_left.wav,90,Left,18,9,225,6,,,,,,,,,444.11363925000114,,,,,,,,,,444.104087791,pre_test,444.11363925000114,444.6107427076679,444.6108855830007,445.1026515829999,445.1026515829999,445.5458053330003,x,0.4355810830002156,None,,,,,final,001,2024-11-17_14h25.42.695,experiment,2024.1.5,None,2024-11-17 14h25.53.560476 +0530,
final_pure_tone_0_left.wav,0,Left,18,10,226,10,,,,,,,,,445.556275166,,,,,,,,,,445.5468796660007,pre_test,445.556275166,446.05129737466655,446.0507337079998,446.54471883299993,446.54471883299993,447.08488004100036,c,0.535674458998983,None,,,,,final,001,2024-11-17_14h25.42.695,experiment,2024.1.5,None,2024-11-17 14h25.53.560476 +0530,
final_pure_tone_30_right.wav,30,Right,18,11,227,9,,,,,,,,,447.0964044580014,,,,,,,,,,447.0855390000015,pre_test,447.0964044580014,447.58566483266645,447.59427941600006,448.08604000000014,448.08604000000014,448.562772958001,v,0.4713943750011822,None,,,,,final,001,2024-11-17_14h25.42.695,experiment,2024.1.5,None,2024-11-17 14h25.53.560476 +0530,
final_pure_tone_0_right.wav,0,Right,19,0,228,11,,,,,,,,,448.573867000001,,,,,,,,,,448.56406570800027,pre_test,448.573867000001,449.06921274966794,449.06625150000036,449.56050704100016,449.56050704100016,450.09472979100065,c,0.5250279169995338,None,,,,,final,001,2024-11-17_14h25.42.695,experiment,2024.1.5,None,2024-11-17 14h25.53.560476 +0530,
final_white_noise_0_left.wav,0,Left,19,1,229,4,,,,,,,,,450.1043689160015,,,,,,,,,,450.0953767910014,pre_test,450.1043689160015,450.59415949966774,450.5986397500001,451.0863534580003,451.0863534580003,451.7703405829998,c,0.6801423749984679,None,,,,,final,001,2024-11-17_14h25.42.695,experiment,2024.1.5,None,2024-11-17 14h25.53.560476 +0530,
final_white_noise_30_left.wav,30,Left,19,2,230,2,,,,,,,,,451.780535291,,,,,,,,,,451.7709835000005,pre_test,451.780535291,452.27705908266785,452.2776172080012,452.770033666,452.770033666,453.4961254160007,x,0.7199499580001429,None,,,,,final,001,2024-11-17_14h25.42.695,experiment,2024.1.5,None,2024-11-17 14h25.53.560476 +0530,
final_pure_tone_30_left.wav,30,Left,19,3,231,8,,,,,,,,,453.5072610410007,,,,,,,,,,453.4974113750013,pre_test,453.5072610410007,454.00156454166813,454.00095987500026,454.49386033300107,454.49386033300107,455.32026812500044,c,0.8184615830014081,None,,,,,final,001,2024-11-17_14h25.42.695,experiment,2024.1.5,None,2024-11-17 14h25.53.560476 +0530,
final_pure_tone_90_right.wav,90,Right,19,4,232,7,,,,,,,,,455.330545791001,,,,,,,,,,455.32087758300077,pre_test,455.330545791001,455.82747166666763,455.82796725000117,456.3197545410003,456.3197545410003,456.5630946250003,v,0.24122204100058298,None,,,,,final,001,2024-11-17_14h25.42.695,experiment,2024.1.5,None,2024-11-17 14h25.53.560476 +0530,
final_pure_tone_0_left.wav,0,Left,19,5,233,10,,,,,,,,,456.57270470799995,,,,,,,,,,456.5637073750004,pre_test,456.57270470799995,457.067908291667,457.06803420800134,457.5614930410011,457.5614930410011,457.80272641600095,c,0.23317012499865086,None,,,,,final,001,2024-11-17_14h25.42.695,experiment,2024.1.5,None,2024-11-17 14h25.53.560476 +0530,
final_white_noise_30_right.wav,30,Right,19,6,234,3,,,,,,,,,457.8273292499998,,,,,,,,,,457.80337708300067,pre_test,457.8273292499998,458.3025490416678,458.317309,458.8023757080009,458.8023757080009,459.08711254100126,c,0.2786656670014054,None,,,,,final,001,2024-11-17_14h25.42.695,experiment,2024.1.5,None,2024-11-17 14h25.53.560476 +0530,
final_pure_tone_30_right.wav,30,Right,19,7,235,9,,,,,,,,,459.09756712499984,,,,,,,,,,459.0877694580013,pre_test,459.09756712499984,459.5945712076666,459.5949513330015,460.08649791600146,460.08649791600146,460.26907374999973,v,0.17596858300021267,None,,,,,final,001,2024-11-17_14h25.42.695,experiment,2024.1.5,None,2024-11-17 14h25.53.560476 +0530,
final_pure_tone_90_left.wav,90,Left,19,8,236,6,,,,,,,,,460.27996450000137,,,,,,,,,,460.27032537500054,pre_test,460.27996450000137,460.7690969576672,460.7778049160006,461.27032325000073,461.27032325000073,461.456061416,x,0.17466712499845016,None,,,,,final,001,2024-11-17_14h25.42.695,experiment,2024.1.5,None,2024-11-17 14h25.53.560476 +0530,
final_white_noise_90_left.wav,90,Left,19,9,237,0,,,,,,,,,461.46395129099983,,,,,,,,,,461.45672545800153,pre_test,461.46395129099983,461.9612603746666,461.9611938329999,462.45320795800035,462.45320795800035,462.8467855830004,x,0.3912942499991914,None,,,,,final,001,2024-11-17_14h25.42.695,experiment,2024.1.5,None,2024-11-17 14h25.53.560476 +0530,
final_white_noise_90_right.wav,90,Right,19,10,238,1,,,,,,,,,462.8564938750005,,,,,,,,,,462.84740299999976,pre_test,462.8564938750005,463.35148874966785,463.35130741600005,463.84478370800025,463.84478370800025,464.0203853330004,c,0.16698408299998846,None,,,,,final,001,2024-11-17_14h25.42.695,experiment,2024.1.5,None,2024-11-17 14h25.53.560476 +0530,
final_white_noise_0_right.wav,0,Right,19,11,239,5,,,,,,,,,464.03010237499984,,,,,,,,,,464.0210066660002,pre_test,464.03010237499984,464.527442124667,464.5280447080004,465.02020029100095,465.02020029100095,465.2969672500003,c,0.2715665830000944,None,,,,,final,001,2024-11-17_14h25.42.695,experiment,2024.1.5,None,2024-11-17 14h25.53.560476 +0530,
,,,,,,,,,,,,,,,,,,,,,,,,,,,,,,,,,,,,465.29752016600105,465.30717412500053,467.3087763750009,467.2955058330008,final,001,2024-11-17_14h25.42.695,experiment,2024.1.5,None,2024-11-17 14h25.53.560476 +0530,
