sound_file_name,Angle,Channel,trials.thisRepN,trials.thisTrialN,trials.thisN,trials.thisIndex,trials_3.thisRepN,trials_3.thisTrialN,trials_3.thisN,trials_3.thisIndex,trials_2.thisRepN,trials_2.thisTrialN,trials_2.thisN,trials_2.thisIndex,thisRow.t,notes,load_variables.started,load_variables.stopped,Welcome.started,key_instruct.started,Welcome.stopped,key_instruct.keys,key_instruct.rt,key_instruct.duration,pretest.started,trial_type,fixation.started,sound_1.started,fixation.stopped,image.started,pretest_response.started,pretest.stopped,pretest_response.keys,pretest_response.rt,pretest_response.duration,training.started,text.started,text.stopped,training.stopped,participant,session,date,expName,psychopyVersion,frameRate,expStart,
,,,,,,,,,,,,,,,,,0.014301791999969282,0.01509829200040258,,,,,,,,,,,,,,,,,,,,,,shivam,001,2024-11-17_14h42.43.532,experiment,2024.1.5,None,2024-11-17 14h42.53.355708 +0530,
,,,,,,,,,,,,,,,,,,,0.01512462500068068,0.032377125000493834,2.2099382920005155,space,2.1478780420002295,None,,,,,,,,,,,,,,,,shivam,001,2024-11-17_14h42.43.532,experiment,2024.1.5,None,2024-11-17 14h42.53.355708 +0530,
final_pure_tone_0_right.wav,0,Right,0,0,0,11,,,,,,,,,2.2859785000000556,,,,,,,,,,2.2345913749995816,pre_test,2.2859785000000556,2.716881416667335,2.7796620419994724,3.208757083000819,3.208757083000819,34.83522245799941,c,31.62270954199994,None,,,,,shivam,001,2024-11-17_14h42.43.532,experiment,2024.1.5,None,2024-11-17 14h42.53.355708 +0530,
final_white_noise_90_left.wav,90,Left,0,1,1,0,,,,,,,,,34.84895204200075,,,,,,,,,,34.83643137500076,pre_test,34.84895204200075,35.34232099966745,35.34274466700117,35.83489854199979,35.83489854199979,37.99362370800009,x,2.1527765419996285,None,,,,,shivam,001,2024-11-17_14h42.43.532,experiment,2024.1.5,None,2024-11-17 14h42.53.355708 +0530,
final_pure_tone_0_left.wav,0,Left,0,2,2,10,,,,,,,,,38.00500737500079,,,,,,,,,,37.99424220800029,pre_test,38.00500737500079,38.49956204166689,38.497191000000385,38.98531458300022,38.98531458300022,42.50242766700103,c,3.51299087499865,None,,,,,shivam,001,2024-11-17_14h42.43.532,experiment,2024.1.5,None,2024-11-17 14h42.53.355708 +0530,
final_white_noise_90_right.wav,90,Right,0,3,3,1,,,,,,,,,42.51410370800113,,,,,,,,,,42.50305325000045,pre_test,42.51410370800113,43.00946804166621,43.0101580419996,43.501853208001194,43.501853208001194,47.65146829200057,v,4.141456541001389,None,,,,,shivam,001,2024-11-17_14h42.43.532,experiment,2024.1.5,None,2024-11-17 14h42.53.355708 +0530,
final_pure_tone_90_left.wav,90,Left,0,4,4,6,,,,,,,,,47.66371699999945,,,,,,,,,,47.652158958000655,pre_test,47.66371699999945,48.15968141666623,48.15970354199999,48.65236283299964,48.65236283299964,52.25254958299956,x,3.5976771249988815,None,,,,,shivam,001,2024-11-17_14h42.43.532,experiment,2024.1.5,None,2024-11-17 14h42.53.355708 +0530,
final_white_noise_30_right.wav,30,Right,0,5,5,3,,,,,,,,,52.26358258300024,,,,,,,,,,52.25323666700024,pre_test,52.26358258300024,52.75945483366765,52.76006983300067,53.252210874999946,53.252210874999946,57.21971591700094,v,3.9661808749988268,None,,,,,shivam,001,2024-11-17_14h42.43.532,experiment,2024.1.5,None,2024-11-17 14h42.53.355708 +0530,
final_white_noise_30_left.wav,30,Left,0,6,6,2,,,,,,,,,57.23125833300037,,,,,,,,,,57.22035766699992,pre_test,57.23125833300037,57.726253416667774,57.727137207999476,58.21887745800086,58.21887745800086,60.46275087499998,z,2.24112441699981,None,,,,,shivam,001,2024-11-17_14h42.43.532,experiment,2024.1.5,None,2024-11-17 14h42.53.355708 +0530,
final_white_noise_0_right.wav,0,Right,0,7,7,5,,,,,,,,,60.474830458000724,,,,,,,,,,60.46344041700104,pre_test,60.474830458000724,60.967058458667694,60.96728945799987,61.46026400000119,61.46026400000119,63.385965667001074,z,1.9207557079989783,None,,,,,shivam,001,2024-11-17_14h42.43.532,experiment,2024.1.5,None,2024-11-17 14h42.53.355708 +0530,
final_white_noise_0_left.wav,0,Left,0,8,8,4,,,,,,,,,63.40849312499995,,,,,,,,,,63.38663054199969,pre_test,63.40849312499995,63.89336124966782,63.89995820799959,64.38564916699943,64.38564916699943,69.36942562500008,c,4.976277624999057,None,,,,,shivam,001,2024-11-17_14h42.43.532,experiment,2024.1.5,None,2024-11-17 14h42.53.355708 +0530,
final_pure_tone_90_right.wav,90,Right,0,9,9,7,,,,,,,,,69.38113754200094,,,,,,,,,,69.37006862499948,pre_test,69.38113754200094,69.87657395866724,69.87706608299959,70.36955941700035,70.36955941700035,72.70330712500072,b,2.3301434999993944,None,,,,,shivam,001,2024-11-17_14h42.43.532,experiment,2024.1.5,None,2024-11-17 14h42.53.355708 +0530,
final_pure_tone_30_left.wav,30,Left,0,10,10,8,,,,,,,,,72.71475695800109,,,,,,,,,,72.70393837499978,pre_test,72.71475695800109,73.2094902916672,73.21051479200105,73.70185912499983,73.70185912499983,77.7297373750007,x,4.020776917001058,None,,,,,shivam,001,2024-11-17_14h42.43.532,experiment,2024.1.5,None,2024-11-17 14h42.53.355708 +0530,
final_pure_tone_30_right.wav,30,Right,0,11,11,9,,,,,,,,,77.7420512080007,,,,,,,,,,77.73067487499975,pre_test,77.7420512080007,78.23433737466645,78.2339022920005,78.72722379200059,78.72722379200059,80.84569691700017,c,2.109252791999097,None,,,,,shivam,001,2024-11-17_14h42.43.532,experiment,2024.1.5,None,2024-11-17 14h42.53.355708 +0530,
final_pure_tone_30_right.wav,30,Right,1,0,12,9,,,,,,,,,80.85606525000003,,,,,,,,,,80.8465130830009,pre_test,80.85606525000003,81.35221129166736,81.34996191699975,81.84347779200107,81.84347779200107,87.61362654200093,x,5.767572624999957,None,,,,,shivam,001,2024-11-17_14h42.43.532,experiment,2024.1.5,None,2024-11-17 14h42.53.355708 +0530,
final_white_noise_0_left.wav,0,Left,1,1,13,4,,,,,,,,,87.6244731250008,,,,,,,,,,87.61440729199967,pre_test,87.6244731250008,88.11926879166664,88.11511829200026,88.61099841699979,88.61099841699979,89.2784668330005,x,0.6624127909999515,None,,,,,shivam,001,2024-11-17_14h42.43.532,experiment,2024.1.5,None,2024-11-17 14h42.53.355708 +0530,
final_pure_tone_90_right.wav,90,Right,1,2,14,7,,,,,,,,,89.2883697920006,,,,,,,,,,89.27910966700074,pre_test,89.2883697920006,89.78557445866706,89.7826377500005,90.27694387500014,90.27694387500014,92.31242112499967,v,2.025840334001259,None,,,,,shivam,001,2024-11-17_14h42.43.532,experiment,2024.1.5,None,2024-11-17 14h42.53.355708 +0530,
final_pure_tone_30_left.wav,30,Left,1,3,15,8,,,,,,,,,92.32371625000087,,,,,,,,,,92.31382737500098,pre_test,92.32371625000087,92.81662420866657,92.81786787500096,93.31137154200042,93.31137154200042,94.69539983300092,x,1.376151624999693,None,,,,,shivam,001,2024-11-17_14h42.43.532,experiment,2024.1.5,None,2024-11-17 14h42.53.355708 +0530,
final_white_noise_90_left.wav,90,Left,1,4,16,0,,,,,,,,,94.70807712500027,,,,,,,,,,94.69670212500023,pre_test,94.70807712500027,95.20064195866713,95.19974895800078,95.69378658300047,95.69378658300047,96.94623091699941,z,1.248154707998765,None,,,,,shivam,001,2024-11-17_14h42.43.532,experiment,2024.1.5,None,2024-11-17 14h42.53.355708 +0530,
final_white_noise_0_right.wav,0,Right,1,5,17,5,,,,,,,,,96.95827429200108,,,,,,,,,,96.94757316700088,pre_test,96.95827429200108,97.45149258366679,97.45122600000104,97.9443554999998,97.9443554999998,98.54505779200008,x,0.5949842499994702,None,,,,,shivam,001,2024-11-17_14h42.43.532,experiment,2024.1.5,None,2024-11-17 14h42.53.355708 +0530,
final_pure_tone_90_left.wav,90,Left,1,6,18,6,,,,,,,,,98.55678245800118,,,,,,,,,,98.54567670799952,pre_test,98.55678245800118,99.05026933366777,99.0513392920002,99.54445416700037,99.54445416700037,99.88702125000054,z,0.3380926250010816,None,,,,,shivam,001,2024-11-17_14h42.43.532,experiment,2024.1.5,None,2024-11-17 14h42.53.355708 +0530,
final_white_noise_90_right.wav,90,Right,1,7,19,1,,,,,,,,,99.89835287499955,,,,,,,,,,99.88761879199956,pre_test,99.89835287499955,100.39396391666766,100.39460495800085,100.88662629200007,100.88662629200007,102.14633629200034,b,1.2540651659983268,None,,,,,shivam,001,2024-11-17_14h42.43.532,experiment,2024.1.5,None,2024-11-17 14h42.53.355708 +0530,
final_white_noise_30_right.wav,30,Right,1,8,20,3,,,,,,,,,102.15890129199943,,,,,,,,,,102.14748858300118,pre_test,102.15890129199943,102.6503889586677,102.6521259580004,103.14423487500062,103.14423487500062,105.33741683300104,v,2.1870417079990148,None,,,,,shivam,001,2024-11-17_14h42.43.532,experiment,2024.1.5,None,2024-11-17 14h42.53.355708 +0530,
final_white_noise_30_left.wav,30,Left,1,9,21,2,,,,,,,,,105.3489545829998,,,,,,,,,,105.3380343330009,pre_test,105.3489545829998,105.84413962466739,105.84473733300001,106.33722462500009,106.33722462500009,106.87077345800026,x,0.5299300410006254,None,,,,,shivam,001,2024-11-17_14h42.43.532,experiment,2024.1.5,None,2024-11-17 14h42.53.355708 +0530,
final_pure_tone_0_right.wav,0,Right,1,10,22,11,,,,,,,,,106.8819479169997,,,,,,,,,,106.87141483300002,pre_test,106.8819479169997,107.37749887466659,107.37816762500006,107.87046966700109,107.87046966700109,108.1374626249999,c,0.26069674999962444,None,,,,,shivam,001,2024-11-17_14h42.43.532,experiment,2024.1.5,None,2024-11-17 14h42.53.355708 +0530,
final_pure_tone_0_left.wav,0,Left,1,11,23,10,,,,,,,,,108.14891908299978,,,,,,,,,,108.13808083299955,pre_test,108.14891908299978,108.64442424966752,108.6446364580006,109.1363303750004,109.1363303750004,109.48760025000047,c,0.345210749999751,None,,,,,shivam,001,2024-11-17_14h42.43.532,experiment,2024.1.5,None,2024-11-17 14h42.53.355708 +0530,
final_pure_tone_90_right.wav,90,Right,2,0,24,7,,,,,,,,,109.49919941699955,,,,,,,,,,109.48823766700116,pre_test,109.49919941699955,109.99472791666655,109.99487200000112,110.4870821250006,110.4870821250006,110.8619851250005,v,0.37136020900106814,None,,,,,shivam,001,2024-11-17_14h42.43.532,experiment,2024.1.5,None,2024-11-17 14h42.53.355708 +0530,
final_white_noise_30_left.wav,30,Left,2,1,25,2,,,,,,,,,110.8720337499999,,,,,,,,,,110.86265341699982,pre_test,110.8720337499999,111.36912658366624,111.36802974999955,111.85369054200055,111.85369054200055,112.33100987500075,z,0.47466858299958403,None,,,,,shivam,001,2024-11-17_14h42.43.532,experiment,2024.1.5,None,2024-11-17 14h42.53.355708 +0530,
final_pure_tone_30_left.wav,30,Left,2,2,26,8,,,,,,,,,112.34313320799993,,,,,,,,,,112.33167270800004,pre_test,112.34313320799993,112.83626683366698,112.83365654199952,113.32854895800119,113.32854895800119,113.94658300000083,x,0.6135503749992495,None,,,,,shivam,001,2024-11-17_14h42.43.532,experiment,2024.1.5,None,2024-11-17 14h42.53.355708 +0530,
final_white_noise_0_right.wav,0,Right,2,3,27,5,,,,,,,,,113.95883220799988,,,,,,,,,,113.94724104200031,pre_test,113.95883220799988,114.45265245866746,114.4491699579994,114.9449075829998,114.9449075829998,115.34570925000116,c,0.3924252090000664,None,,,,,shivam,001,2024-11-17_14h42.43.532,experiment,2024.1.5,None,2024-11-17 14h42.53.355708 +0530,
final_pure_tone_0_right.wav,0,Right,2,4,28,11,,,,,,,,,115.35655700000098,,,,,,,,,,115.34705820800082,pre_test,115.35655700000098,115.85192037466756,115.85157491700011,116.34492545800094,116.34492545800094,117.89679937500114,c,1.5465013749999343,None,,,,,shivam,001,2024-11-17_14h42.43.532,experiment,2024.1.5,None,2024-11-17 14h42.53.355708 +0530,
final_pure_tone_90_left.wav,90,Left,2,5,29,6,,,,,,,,,117.90985208300117,,,,,,,,,,117.89815658299995,pre_test,117.90985208300117,118.40072241666736,118.40210191699953,118.89511154200045,118.89511154200045,119.34668283300016,z,0.44646758300041256,None,,,,,shivam,001,2024-11-17_14h42.43.532,experiment,2024.1.5,None,2024-11-17 14h42.53.355708 +0530,
final_pure_tone_0_left.wav,0,Left,2,6,30,10,,,,,,,,,119.35645012500026,,,,,,,,,,119.34734283299986,pre_test,119.35645012500026,119.85327066666675,119.84951983300016,120.34500183300042,120.34500183300042,120.45429012500063,z,0.10712612499992247,None,,,,,shivam,001,2024-11-17_14h42.43.532,experiment,2024.1.5,None,2024-11-17 14h42.53.355708 +0530,
final_pure_tone_30_right.wav,30,Right,2,7,31,9,,,,,,,,,120.46554487499998,,,,,,,,,,120.45489783300036,pre_test,120.46554487499998,120.961773291667,120.96176666700012,121.45398241700059,121.45398241700059,122.66324979199999,v,1.1974985420001758,None,,,,,shivam,001,2024-11-17_14h42.43.532,experiment,2024.1.5,None,2024-11-17 14h42.53.355708 +0530,
final_white_noise_90_left.wav,90,Left,2,8,32,0,,,,,,,,,122.67481866700109,,,,,,,,,,122.66392254200036,pre_test,122.67481866700109,123.16872449966674,123.16850220800006,123.6615059579999,123.6615059579999,124.01356358300109,z,0.3475350420012546,None,,,,,shivam,001,2024-11-17_14h42.43.532,experiment,2024.1.5,None,2024-11-17 14h42.53.355708 +0530,
final_white_noise_90_right.wav,90,Right,2,9,33,1,,,,,,,,,124.02506087500115,,,,,,,,,,124.01423966699986,pre_test,124.02506087500115,124.5185006246668,124.51914829199995,125.01180329199997,125.01180329199997,125.4135084999998,b,0.39635920799992164,None,,,,,shivam,001,2024-11-17_14h42.43.532,experiment,2024.1.5,None,2024-11-17 14h42.53.355708 +0530,
final_white_noise_30_right.wav,30,Right,2,10,34,3,,,,,,,,,125.42596912500085,,,,,,,,,,125.41489108300084,pre_test,125.42596912500085,125.9201737916667,125.91605741700005,126.41189183300048,126.41189183300048,126.80353500000092,v,0.3853408750001108,None,,,,,shivam,001,2024-11-17_14h42.43.532,experiment,2024.1.5,None,2024-11-17 14h42.53.355708 +0530,
final_white_noise_0_left.wav,0,Left,2,11,35,4,,,,,,,,,126.8164612920009,,,,,,,,,,126.80434199999945,pre_test,126.8164612920009,127.31200862466746,127.31202750000011,127.80344541700106,127.80344541700106,128.29684749999979,c,0.4836672080000426,None,,,,,shivam,001,2024-11-17_14h42.43.532,experiment,2024.1.5,None,2024-11-17 14h42.53.355708 +0530,
final_pure_tone_30_right.wav,30,Right,3,0,36,9,,,,,,,,,128.30914900000062,,,,,,,,,,128.29785908300073,pre_test,128.30914900000062,128.80262329166752,128.80166995800028,129.29538308300107,129.29538308300107,131.68800504200044,x,2.3892377909996867,None,,,,,shivam,001,2024-11-17_14h42.43.532,experiment,2024.1.5,None,2024-11-17 14h42.53.355708 +0530,
final_white_noise_0_right.wav,0,Right,3,1,37,5,,,,,,,,,131.69957816700116,,,,,,,,,,131.6886279170012,pre_test,131.69957816700116,132.19496949966768,132.19525016700027,132.6882004170002,132.6882004170002,133.21357162499953,z,0.5185125829993922,None,,,,,shivam,001,2024-11-17_14h42.43.532,experiment,2024.1.5,None,2024-11-17 14h42.53.355708 +0530,
final_pure_tone_90_left.wav,90,Left,3,2,38,6,,,,,,,,,133.2269138749998,,,,,,,,,,133.21492399999988,pre_test,133.2269138749998,133.7193042916663,133.71663937499943,134.21173666700088,134.21173666700088,134.39678279200052,z,0.17710954200083506,None,,,,,shivam,001,2024-11-17_14h42.43.532,experiment,2024.1.5,None,2024-11-17 14h42.53.355708 +0530,
final_white_noise_90_right.wav,90,Right,3,3,39,1,,,,,,,,,134.40871991700078,,,,,,,,,,134.39816216700092,pre_test,134.40871991700078,134.90324633366643,134.9014944169994,135.39507675000095,135.39507675000095,135.91275891700025,b,0.5131230420010979,None,,,,,shivam,001,2024-11-17_14h42.43.532,experiment,2024.1.5,None,2024-11-17 14h42.53.355708 +0530,
final_pure_tone_0_left.wav,0,Left,3,4,40,10,,,,,,,,,135.92429270799948,,,,,,,,,,135.91336816700095,pre_test,135.92429270799948,136.41929666666718,136.41870958300024,136.90251920800074,136.90251920800074,137.17915341700063,c,0.2728990839987091,None,,,,,shivam,001,2024-11-17_14h42.43.532,experiment,2024.1.5,None,2024-11-17 14h42.53.355708 +0530,
final_pure_tone_0_right.wav,0,Right,3,5,41,11,,,,,,,,,137.1905933750004,,,,,,,,,,137.179804667001,pre_test,137.1905933750004,137.68630654166762,137.68506354199963,138.17087487500066,138.17087487500066,138.2808770419997,c,0.1077422079997632,None,,,,,shivam,001,2024-11-17_14h42.43.532,experiment,2024.1.5,None,2024-11-17 14h42.53.355708 +0530,
final_white_noise_90_left.wav,90,Left,3,6,42,0,,,,,,,,,138.29220712499955,,,,,,,,,,138.28153208299955,pre_test,138.29220712499955,138.78714908366626,138.7850919169996,139.27850270800081,139.27850270800081,139.33772124999996,z,0.05683787500129256,None,,,,,shivam,001,2024-11-17_14h42.43.532,experiment,2024.1.5,None,2024-11-17 14h42.53.355708 +0530,
final_white_noise_0_left.wav,0,Left,3,7,43,4,,,,,,,,,139.3495128329996,,,,,,,,,,139.33839441700002,pre_test,139.3495128329996,139.84527320866644,139.84554070800004,140.33788837500106,140.33788837500106,140.4038677919998,z,0.06194583300020895,None,,,,,shivam,001,2024-11-17_14h42.43.532,experiment,2024.1.5,None,2024-11-17 14h42.53.355708 +0530,
final_pure_tone_30_left.wav,30,Left,3,8,44,8,,,,,,,,,140.416001167001,,,,,,,,,,140.40447637500074,pre_test,140.416001167001,140.90375166666698,140.91234191700096,141.40387904199997,141.40387904199997,141.74611412500053,c,0.33618795899928955,None,,,,,shivam,001,2024-11-17_14h42.43.532,experiment,2024.1.5,None,2024-11-17 14h42.53.355708 +0530,
final_white_noise_30_right.wav,30,Right,3,9,45,3,,,,,,,,,141.75805633300115,,,,,,,,,,141.74745862500095,pre_test,141.75805633300115,142.25331399966697,142.25161900000057,142.7449214999997,142.7449214999997,143.04722929200034,b,0.2998775840005692,None,,,,,shivam,001,2024-11-17_14h42.43.532,experiment,2024.1.5,None,2024-11-17 14h42.53.355708 +0530,
final_pure_tone_90_right.wav,90,Right,3,10,46,7,,,,,,,,,143.0582490830002,,,,,,,,,,143.04784737500086,pre_test,143.0582490830002,143.55097416666675,143.5502489999999,144.04564158299945,144.04564158299945,145.23779404200104,x,1.1878892500008078,None,,,,,shivam,001,2024-11-17_14h42.43.532,experiment,2024.1.5,None,2024-11-17 14h42.53.355708 +0530,
final_white_noise_30_left.wav,30,Left,3,11,47,2,,,,,,,,,145.24946350000027,,,,,,,,,,145.2384614170005,pre_test,145.24946350000027,145.73728708366642,145.74566395799957,146.23789220800063,146.23789220800063,146.42153804200098,x,0.1791693329996633,None,,,,,shivam,001,2024-11-17_14h42.43.532,experiment,2024.1.5,None,2024-11-17 14h42.53.355708 +0530,
final_pure_tone_90_right.wav,90,Right,4,0,48,7,,,,,,,,,146.43148791699969,,,,,,,,,,146.42222479200063,pre_test,146.43148791699969,146.92909804166655,146.92946875000052,147.4214533329996,147.4214533329996,148.0479773750012,c,0.6214477920002537,None,,,,,shivam,001,2024-11-17_14h42.43.532,experiment,2024.1.5,None,2024-11-17 14h42.53.355708 +0530,
final_pure_tone_0_right.wav,0,Right,4,1,49,11,,,,,,,,,148.05864587500037,,,,,,,,,,148.0491711249997,pre_test,148.05864587500037,148.5514149166668,148.55000862499946,149.04556862500067,149.04556862500067,149.17527400000108,c,0.1172479580000072,None,,,,,shivam,001,2024-11-17_14h42.43.532,experiment,2024.1.5,None,2024-11-17 14h42.53.355708 +0530,
final_white_noise_0_right.wav,0,Right,4,2,50,5,,,,,,,,,149.18346416700115,,,,,,,,,,149.17600404199948,pre_test,149.18346416700115,149.67865274966633,149.6791367500009,150.17083645800085,150.17083645800085,151.31403737500113,z,1.1354697500009934,None,,,,,shivam,001,2024-11-17_14h42.43.532,experiment,2024.1.5,None,2024-11-17 14h42.53.355708 +0530,
final_pure_tone_90_left.wav,90,Left,4,3,51,6,,,,,,,,,151.325147208001,,,,,,,,,,151.31546095799968,pre_test,151.325147208001,151.8197734996668,151.81915325000045,152.31210508299955,152.31210508299955,153.09914633300104,z,0.7796924579997722,None,,,,,shivam,001,2024-11-17_14h42.43.532,experiment,2024.1.5,None,2024-11-17 14h42.53.355708 +0530,
final_pure_tone_30_right.wav,30,Right,4,4,52,9,,,,,,,,,153.11023670800023,,,,,,,,,,153.0998080419995,pre_test,153.11023670800023,153.6038010836676,153.6022689170004,154.09591650000038,154.09591650000038,155.07423662499968,z,0.9673229589989205,None,,,,,shivam,001,2024-11-17_14h42.43.532,experiment,2024.1.5,None,2024-11-17 14h42.53.355708 +0530,
final_white_noise_90_left.wav,90,Left,4,5,53,0,,,,,,,,,155.08244620799996,,,,,,,,,,155.0748800420006,pre_test,155.08244620799996,155.5787337086679,155.57930041700092,156.07154462499966,156.07154462499966,157.5053200830007,x,1.4288324999997712,None,,,,,shivam,001,2024-11-17_14h42.43.532,experiment,2024.1.5,None,2024-11-17 14h42.53.355708 +0530,
final_pure_tone_30_left.wav,30,Left,4,6,54,8,,,,,,,,,157.51507920800032,,,,,,,,,,157.50593262500115,pre_test,157.51507920800032,158.01250349966747,158.01280399999996,158.5027141669998,158.5027141669998,158.80513687500024,c,0.29495308300101897,None,,,,,shivam,001,2024-11-17_14h42.43.532,experiment,2024.1.5,None,2024-11-17 14h42.53.355708 +0530,
final_white_noise_0_left.wav,0,Left,4,7,55,4,,,,,,,,,158.81560050000007,,,,,,,,,,158.8057673330004,pre_test,158.81560050000007,159.3123629166678,159.31234483300068,159.80482904200107,159.80482904200107,160.2048777079999,c,0.39186824999887904,None,,,,,shivam,001,2024-11-17_14h42.43.532,experiment,2024.1.5,None,2024-11-17 14h42.53.355708 +0530,
final_white_noise_30_left.wav,30,Left,4,8,56,2,,,,,,,,,160.2155510419998,,,,,,,,,,160.20549320800092,pre_test,160.2155510419998,160.7120712496674,160.7126988330001,161.20468416699987,161.20468416699987,161.38811150000038,c,0.17987299999913375,None,,,,,shivam,001,2024-11-17_14h42.43.532,experiment,2024.1.5,None,2024-11-17 14h42.53.355708 +0530,
final_white_noise_30_right.wav,30,Right,4,9,57,3,,,,,,,,,161.39811575000022,,,,,,,,,,161.38877216699984,pre_test,161.39811575000022,161.89540637466624,161.89631266700053,162.38839208299942,162.38839208299942,162.7381215000005,v,0.3414696250001725,None,,,,,shivam,001,2024-11-17_14h42.43.532,experiment,2024.1.5,None,2024-11-17 14h42.53.355708 +0530,
final_pure_tone_0_left.wav,0,Left,4,10,58,10,,,,,,,,,162.74862829199992,,,,,,,,,,162.73879295799998,pre_test,162.74862829199992,163.2464654586677,163.24590974999956,163.73771383300118,163.73771383300118,164.10556524999993,c,0.366263333000461,None,,,,,shivam,001,2024-11-17_14h42.43.532,experiment,2024.1.5,None,2024-11-17 14h42.53.355708 +0530,
final_white_noise_90_right.wav,90,Right,4,11,59,1,,,,,,,,,164.1160428330004,,,,,,,,,,164.10617970800013,pre_test,164.1160428330004,164.61327362466753,164.61290183300116,165.1048412500004,165.1048412500004,165.3981921249997,b,0.288099624998722,None,,,,,shivam,001,2024-11-17_14h42.43.532,experiment,2024.1.5,None,2024-11-17 14h42.53.355708 +0530,
final_white_noise_90_right.wav,90,Right,5,0,60,1,,,,,,,,,165.4083080420005,,,,,,,,,,165.39891237499978,pre_test,165.4083080420005,165.90337524966733,165.90278274999946,166.3955069170006,166.3955069170006,166.84811345799972,b,0.4451343339987943,None,,,,,shivam,001,2024-11-17_14h42.43.532,experiment,2024.1.5,None,2024-11-17 14h42.53.355708 +0530,
final_white_noise_30_left.wav,30,Left,5,1,61,2,,,,,,,,,166.85890129200016,,,,,,,,,,166.84925854200083,pre_test,166.85890129200016,167.35350324966774,167.35273391699957,167.8461463750009,167.8461463750009,168.12201174999973,x,0.27168587500091235,None,,,,,shivam,001,2024-11-17_14h42.43.532,experiment,2024.1.5,None,2024-11-17 14h42.53.355708 +0530,
final_pure_tone_30_right.wav,30,Right,5,2,62,9,,,,,,,,,168.13228062500093,,,,,,,,,,168.12264037500063,pre_test,168.13228062500093,168.6215046666678,168.62945229199977,169.12073220800085,169.12073220800085,169.50509245800095,v,0.3763372499997786,None,,,,,shivam,001,2024-11-17_14h42.43.532,experiment,2024.1.5,None,2024-11-17 14h42.53.355708 +0530,
final_pure_tone_0_left.wav,0,Left,5,3,63,10,,,,,,,,,169.5153093330009,,,,,,,,,,169.50573091700062,pre_test,169.5153093330009,170.01331683366723,170.012855125,170.50499925000076,170.50499925000076,170.8634096250007,c,0.35049304200038023,None,,,,,shivam,001,2024-11-17_14h42.43.532,experiment,2024.1.5,None,2024-11-17 14h42.53.355708 +0530,
final_pure_tone_30_left.wav,30,Left,5,4,64,8,,,,,,,,,170.87442312500025,,,,,,,,,,170.8647014170001,pre_test,170.87442312500025,171.37094729166736,171.36951383300038,171.8630028330008,171.8630028330008,171.9224091670003,c,0.05226845899960608,None,,,,,shivam,001,2024-11-17_14h42.43.532,experiment,2024.1.5,None,2024-11-17 14h42.53.355708 +0530,
final_pure_tone_90_left.wav,90,Left,5,5,65,6,,,,,,,,,171.93318250000084,,,,,,,,,,171.9230882920001,pre_test,171.93318250000084,172.42943637466695,172.4295581669994,172.92163258300025,172.92163258300025,173.23804200000086,x,0.30830287500066333,None,,,,,shivam,001,2024-11-17_14h42.43.532,experiment,2024.1.5,None,2024-11-17 14h42.53.355708 +0530,
final_white_noise_30_right.wav,30,Right,5,6,66,3,,,,,,,,,173.26259462500093,,,,,,,,,,173.2387126249996,pre_test,173.26259462500093,173.74619074966748,173.75113970799976,174.2380915419999,174.2380915419999,174.82226183300008,c,0.5824310839998361,None,,,,,shivam,001,2024-11-17_14h42.43.532,experiment,2024.1.5,None,2024-11-17 14h42.53.355708 +0530,
final_white_noise_0_left.wav,0,Left,5,7,67,4,,,,,,,,,174.8326752080011,,,,,,,,,,174.82291041700046,pre_test,174.8326752080011,175.32913991666672,175.33008641699962,175.8215275420007,175.8215275420007,176.15563779200056,x,0.3272521249982674,None,,,,,shivam,001,2024-11-17_14h42.43.532,experiment,2024.1.5,None,2024-11-17 14h42.53.355708 +0530,
final_white_noise_0_right.wav,0,Right,5,8,68,5,,,,,,,,,176.16627920800056,,,,,,,,,,176.15626195799996,pre_test,176.16627920800056,176.66323591666722,176.66299029199945,177.15530433300046,177.15530433300046,177.52258404200074,x,0.3588058749992342,None,,,,,shivam,001,2024-11-17_14h42.43.532,experiment,2024.1.5,None,2024-11-17 14h42.53.355708 +0530,
final_pure_tone_0_right.wav,0,Right,5,9,69,11,,,,,,,,,177.5329644579997,,,,,,,,,,177.5232433330002,pre_test,177.5329644579997,178.0292612916676,178.02977595800076,178.5227686670005,178.5227686670005,180.2897908750001,v,1.759639750000133,None,,,,,shivam,001,2024-11-17_14h42.43.532,experiment,2024.1.5,None,2024-11-17 14h42.53.355708 +0530,
final_white_noise_90_left.wav,90,Left,5,10,70,0,,,,,,,,,180.30012487500062,,,,,,,,,,180.29041925000092,pre_test,180.30012487500062,180.7962527086677,180.79644712499976,181.28877199999988,181.28877199999988,181.86511579199941,z,0.5671469159988192,None,,,,,shivam,001,2024-11-17_14h42.43.532,experiment,2024.1.5,None,2024-11-17 14h42.53.355708 +0530,
final_pure_tone_90_right.wav,90,Right,5,11,71,7,,,,,,,,,181.87532095800088,,,,,,,,,,181.8660300419997,pre_test,181.87532095800088,182.36905899966612,182.36999791699964,182.86315262500102,182.86315262500102,183.28939095799979,v,0.42126345799988485,None,,,,,shivam,001,2024-11-17_14h42.43.532,experiment,2024.1.5,None,2024-11-17 14h42.53.355708 +0530,
final_pure_tone_30_right.wav,30,Right,6,0,72,9,,,,,,,,,183.29978520800069,,,,,,,,,,183.2900150000005,pre_test,183.29978520800069,183.79633591666632,183.79667854199943,184.28845445800107,184.28845445800107,184.48096987499957,v,0.1844268339991686,None,,,,,shivam,001,2024-11-17_14h42.43.532,experiment,2024.1.5,None,2024-11-17 14h42.53.355708 +0530,
final_white_noise_90_left.wav,90,Left,6,1,73,0,,,,,,,,,184.49137574999986,,,,,,,,,,184.4822495419994,pre_test,184.49137574999986,184.9870832916661,184.98660504200052,185.47959058299966,185.47959058299966,186.0151792079996,z,0.5295161670001107,None,,,,,shivam,001,2024-11-17_14h42.43.532,experiment,2024.1.5,None,2024-11-17 14h42.53.355708 +0530,
final_pure_tone_90_right.wav,90,Right,6,2,74,7,,,,,,,,,186.02629587500087,,,,,,,,,,186.01651387499987,pre_test,186.02629587500087,186.51996620866728,186.52002350000112,187.0131767920011,187.0131767920011,187.7727345000003,x,0.7565701249986887,None,,,,,shivam,001,2024-11-17_14h42.43.532,experiment,2024.1.5,None,2024-11-17 14h42.53.355708 +0530,
final_white_noise_90_right.wav,90,Right,6,3,75,1,,,,,,,,,187.78314337499978,,,,,,,,,,187.77341179200084,pre_test,187.78314337499978,188.27981216666765,188.28022258300007,188.77199479199953,188.77199479199953,189.27323304200036,v,0.49731804099974397,None,,,,,shivam,001,2024-11-17_14h42.43.532,experiment,2024.1.5,None,2024-11-17 14h42.53.355708 +0530,
final_white_noise_30_right.wav,30,Right,6,4,76,3,,,,,,,,,189.2839668329998,,,,,,,,,,189.2738862919996,pre_test,189.2839668329998,189.77990195866758,189.780002083,190.2724697499998,190.2724697499998,190.49868366699957,v,0.22125879200029885,None,,,,,shivam,001,2024-11-17_14h42.43.532,experiment,2024.1.5,None,2024-11-17 14h42.53.355708 +0530,
final_pure_tone_30_left.wav,30,Left,6,5,77,8,,,,,,,,,190.50852487500015,,,,,,,,,,190.4992983330012,pre_test,190.50852487500015,191.0049429166668,191.00101391700082,191.49640949999957,191.49640949999957,191.87210841700107,x,0.37127912500000093,None,,,,,shivam,001,2024-11-17_14h42.43.532,experiment,2024.1.5,None,2024-11-17 14h42.53.355708 +0530,
final_pure_tone_0_right.wav,0,Right,6,6,78,11,,,,,,,,,191.88202699999965,,,,,,,,,,191.8727252080007,pre_test,191.88202699999965,192.37148991666643,192.38011474999985,192.87133258299946,192.87133258299946,192.97180712500085,x,0.09558725000169943,None,,,,,shivam,001,2024-11-17_14h42.43.532,experiment,2024.1.5,None,2024-11-17 14h42.53.355708 +0530,
final_white_noise_30_left.wav,30,Left,6,7,79,2,,,,,,,,,192.98206608300097,,,,,,,,,,192.97245366700008,pre_test,192.98206608300097,193.48022766666716,193.48006670799987,193.97233470799983,193.97233470799983,194.749235917001,x,0.7694264999990992,None,,,,,shivam,001,2024-11-17_14h42.43.532,experiment,2024.1.5,None,2024-11-17 14h42.53.355708 +0530,
final_pure_tone_0_left.wav,0,Left,6,8,80,10,,,,,,,,,194.7593618330011,,,,,,,,,,194.74987516700094,pre_test,194.7593618330011,195.2529400836668,195.25368295800035,195.7472441250011,195.7472441250011,196.81559474999995,c,1.0625102079993667,None,,,,,shivam,001,2024-11-17_14h42.43.532,experiment,2024.1.5,None,2024-11-17 14h42.53.355708 +0530,
final_pure_tone_90_left.wav,90,Left,6,9,81,6,,,,,,,,,196.82638595800017,,,,,,,,,,196.81689820800057,pre_test,196.82638595800017,197.32167854166644,197.31983004200083,197.81389800000034,197.81389800000034,199.63284187499994,x,1.8162705419999838,None,,,,,shivam,001,2024-11-17_14h42.43.532,experiment,2024.1.5,None,2024-11-17 14h42.53.355708 +0530,
final_white_noise_0_left.wav,0,Left,6,10,82,4,,,,,,,,,199.64331562500047,,,,,,,,,,199.63407008300055,pre_test,199.64331562500047,200.13687020866772,200.13719624999976,200.629723,200.629723,200.9054334579996,c,0.26923974999954225,None,,,,,shivam,001,2024-11-17_14h42.43.532,experiment,2024.1.5,None,2024-11-17 14h42.53.355708 +0530,
final_white_noise_0_right.wav,0,Right,6,11,83,5,,,,,,,,,200.92964366700107,,,,,,,,,,200.90606966700034,pre_test,200.92964366700107,201.40517387466778,201.41760737500044,201.90512108300027,201.90512108300027,201.9898064580011,c,0.07840145800037135,None,,,,,shivam,001,2024-11-17_14h42.43.532,experiment,2024.1.5,None,2024-11-17 14h42.53.355708 +0530,
final_white_noise_90_left.wav,90,Left,7,0,84,0,,,,,,,,,201.99955062499976,,,,,,,,,,201.99042354199992,pre_test,201.99955062499976,202.49640683366695,202.4968977919998,202.98975562499982,202.98975562499982,203.2815205830011,z,0.2860139580006944,None,,,,,shivam,001,2024-11-17_14h42.43.532,experiment,2024.1.5,None,2024-11-17 14h42.53.355708 +0530,
final_pure_tone_30_left.wav,30,Left,7,1,85,8,,,,,,,,,203.29134691699983,,,,,,,,,,203.28219949999948,pre_test,203.29134691699983,203.7878776666678,203.7865214579997,204.28036929200061,204.28036929200061,204.45612362500106,x,0.17414391600141244,None,,,,,shivam,001,2024-11-17_14h42.43.532,experiment,2024.1.5,None,2024-11-17 14h42.53.355708 +0530,
final_pure_tone_30_right.wav,30,Right,7,2,86,9,,,,,,,,,204.46661375000076,,,,,,,,,,204.45673158300087,pre_test,204.46661375000076,204.96370479166788,204.96376274999966,205.45615716700013,205.45615716700013,205.71654108300027,v,0.25792249999904016,None,,,,,shivam,001,2024-11-17_14h42.43.532,experiment,2024.1.5,None,2024-11-17 14h42.53.355708 +0530,
final_white_noise_30_right.wav,30,Right,7,3,87,3,,,,,,,,,205.72641016700072,,,,,,,,,,205.71718783300093,pre_test,205.72641016700072,206.22089670866652,206.220331292001,206.71378841700061,206.71378841700061,206.87340754199977,c,0.15648650000002817,None,,,,,shivam,001,2024-11-17_14h42.43.532,experiment,2024.1.5,None,2024-11-17 14h42.53.355708 +0530,
final_pure_tone_0_left.wav,0,Left,7,4,88,10,,,,,,,,,206.88356504200055,,,,,,,,,,206.87402674999976,pre_test,206.88356504200055,207.38015704166745,207.38044870799968,207.8723285420001,207.8723285420001,208.21646350000083,x,0.3385236249996524,None,,,,,shivam,001,2024-11-17_14h42.43.532,experiment,2024.1.5,None,2024-11-17 14h42.53.355708 +0530,
final_pure_tone_0_right.wav,0,Right,7,5,89,11,,,,,,,,,208.2271017080002,,,,,,,,,,208.2174976669994,pre_test,208.2271017080002,208.72142141666725,208.72001195800112,209.21405783299997,209.21405783299997,209.33208812500015,x,0.10958025000036287,None,,,,,shivam,001,2024-11-17_14h42.43.532,experiment,2024.1.5,None,2024-11-17 14h42.53.355708 +0530,
final_white_noise_30_left.wav,30,Left,7,6,90,2,,,,,,,,,209.34324175000074,,,,,,,,,,209.33342904200072,pre_test,209.34324175000074,209.8367820836668,209.8346697500001,210.33047145800083,210.33047145800083,210.3656172080009,z,0.027577582999583683,None,,,,,shivam,001,2024-11-17_14h42.43.532,experiment,2024.1.5,None,2024-11-17 14h42.53.355708 +0530,
final_pure_tone_90_right.wav,90,Right,7,7,91,7,,,,,,,,,210.37754483299977,,,,,,,,,,210.3662792920004,pre_test,210.37754483299977,210.87213883366738,210.86830208299943,211.36354225000105,211.36354225000105,211.5987074170007,b,0.2295576249998703,None,,,,,shivam,001,2024-11-17_14h42.43.532,experiment,2024.1.5,None,2024-11-17 14h42.53.355708 +0530,
final_white_noise_0_left.wav,0,Left,7,8,92,4,,,,,,,,,211.61058670800048,,,,,,,,,,211.59937075000016,pre_test,211.61058670800048,212.10457258366685,212.10383479200027,212.5971315830011,212.5971315830011,213.88277720800033,v,1.2833580410006107,None,,,,,shivam,001,2024-11-17_14h42.43.532,experiment,2024.1.5,None,2024-11-17 14h42.53.355708 +0530,
final_pure_tone_90_left.wav,90,Left,7,9,93,6,,,,,,,,,213.8949267500011,,,,,,,,,,213.88342637499954,pre_test,213.8949267500011,214.3878895836663,214.3853681670007,214.88002762500037,214.88002762500037,215.15666720800073,x,0.27320045799933723,None,,,,,shivam,001,2024-11-17_14h42.43.532,experiment,2024.1.5,None,2024-11-17 14h42.53.355708 +0530,
final_white_noise_0_right.wav,0,Right,7,10,94,5,,,,,,,,,215.16708758300047,,,,,,,,,,215.1572844580005,pre_test,215.16708758300047,215.6637981246661,215.6638175420012,216.1565068330001,216.1565068330001,217.55647641699943,c,1.3948837090010784,None,,,,,shivam,001,2024-11-17_14h42.43.532,experiment,2024.1.5,None,2024-11-17 14h42.53.355708 +0530,
final_white_noise_90_right.wav,90,Right,7,11,95,1,,,,,,,,,217.5679223749994,,,,,,,,,,217.55714241700116,pre_test,217.5679223749994,218.06391633366755,218.06397666700104,218.55560691699975,218.55560691699975,219.00642987500032,c,0.44697329200062086,None,,,,,shivam,001,2024-11-17_14h42.43.532,experiment,2024.1.5,None,2024-11-17 14h42.53.355708 +0530,
final_white_noise_0_right.wav,0,Right,8,0,96,5,,,,,,,,,219.01698608300103,,,,,,,,,,219.00704662499993,pre_test,219.01698608300103,219.51394816666678,219.51390941700083,220.00656766700013,220.00656766700013,220.11700924999968,c,0.10785583299912105,None,,,,,shivam,001,2024-11-17_14h42.43.532,experiment,2024.1.5,None,2024-11-17 14h42.53.355708 +0530,
final_white_noise_30_left.wav,30,Left,8,1,97,2,,,,,,,,,220.1273737499996,,,,,,,,,,220.11787837500015,pre_test,220.1273737499996,220.6222280416662,220.61932075000004,221.11453166700085,221.11453166700085,221.25650549999955,c,0.13973937499940803,None,,,,,shivam,001,2024-11-17_14h42.43.532,experiment,2024.1.5,None,2024-11-17 14h42.53.355708 +0530,
final_white_noise_0_left.wav,0,Left,8,2,98,4,,,,,,,,,221.2663337920003,,,,,,,,,,221.25712229199962,pre_test,221.2663337920003,221.76392274966773,221.7639615420012,222.25532212500002,222.25532212500002,222.53899641700082,x,0.2761360839995177,None,,,,,shivam,001,2024-11-17_14h42.43.532,experiment,2024.1.5,None,2024-11-17 14h42.53.355708 +0530,
final_pure_tone_30_right.wav,30,Right,8,3,99,9,,,,,,,,,222.5635084580008,,,,,,,,,,222.5396221250012,pre_test,222.5635084580008,223.04733591666653,223.05198416700114,223.53975266700036,223.53975266700036,223.80017187500016,v,0.25172679200113635,None,,,,,shivam,001,2024-11-17_14h42.43.532,experiment,2024.1.5,None,2024-11-17 14h42.53.355708 +0530,
final_pure_tone_0_right.wav,0,Right,8,4,100,11,,,,,,,,,223.81165820800015,,,,,,,,,,223.80133433300034,pre_test,223.81165820800015,224.30572495866753,224.304640458,224.79746999999952,224.79746999999952,225.0899602919999,v,0.2907865410015802,None,,,,,shivam,001,2024-11-17_14h42.43.532,experiment,2024.1.5,None,2024-11-17 14h42.53.355708 +0530,
final_white_noise_30_right.wav,30,Right,8,5,101,3,,,,,,,,,225.10227070800102,,,,,,,,,,225.09065108300092,pre_test,225.10227070800102,225.59692195866617,225.59757829199953,226.08974337499967,226.08974337499967,226.54047954199996,c,0.4423139999998966,None,,,,,shivam,001,2024-11-17_14h42.43.532,experiment,2024.1.5,None,2024-11-17 14h42.53.355708 +0530,
final_white_noise_90_left.wav,90,Left,8,6,102,0,,,,,,,,,226.55182887500087,,,,,,,,,,226.54112629200063,pre_test,226.55182887500087,227.04729954166785,227.04735045800044,227.53990066699953,227.53990066699953,227.72263333299998,z,0.1785352499991859,None,,,,,shivam,001,2024-11-17_14h42.43.532,experiment,2024.1.5,None,2024-11-17 14h42.53.355708 +0530,
final_white_noise_90_right.wav,90,Right,8,7,103,1,,,,,,,,,227.73434983300103,,,,,,,,,,227.72366529200008,pre_test,227.73434983300103,228.2224062086664,228.23097625000082,228.7225500000004,228.7225500000004,229.23355945799995,v,0.5084999999999127,None,,,,,shivam,001,2024-11-17_14h42.43.532,experiment,2024.1.5,None,2024-11-17 14h42.53.355708 +0530,
final_pure_tone_90_right.wav,90,Right,8,8,104,7,,,,,,,,,229.24497495800097,,,,,,,,,,229.23451537500114,pre_test,229.24497495800097,229.73666904166774,229.73592712500067,230.2311363330009,230.2311363330009,231.34963466699992,c,1.1162852080015,None,,,,,shivam,001,2024-11-17_14h42.43.532,experiment,2024.1.5,None,2024-11-17 14h42.53.355708 +0530,
final_pure_tone_0_left.wav,0,Left,8,9,105,10,,,,,,,,,231.36136316699958,,,,,,,,,,231.35031558300034,pre_test,231.36136316699958,231.85555524966756,231.85386270799972,232.3477147499998,232.3477147499998,232.75616808300038,c,0.4037486249999347,None,,,,,shivam,001,2024-11-17_14h42.43.532,experiment,2024.1.5,None,2024-11-17 14h42.53.355708 +0530,
final_pure_tone_90_left.wav,90,Left,8,10,106,6,,,,,,,,,232.76813354200021,,,,,,,,,,232.75679512500028,pre_test,232.76813354200021,233.25600674966725,233.26434829200116,233.7569090420002,233.7569090420002,234.25725745800082,z,0.49573516600139556,None,,,,,shivam,001,2024-11-17_14h42.43.532,experiment,2024.1.5,None,2024-11-17 14h42.53.355708 +0530,
final_pure_tone_30_left.wav,30,Left,8,11,107,8,,,,,,,,,234.26885100000072,,,,,,,,,,234.25787879200107,pre_test,234.26885100000072,234.76392241666716,234.76437437499953,235.2561993750005,235.2561993750005,235.4570303750006,z,0.19228237500101386,None,,,,,shivam,001,2024-11-17_14h42.43.532,experiment,2024.1.5,None,2024-11-17 14h42.53.355708 +0530,
final_pure_tone_0_left.wav,0,Left,9,0,108,10,,,,,,,,,235.4666001250007,,,,,,,,,,235.45763262500077,pre_test,235.4666001250007,235.96387120866737,235.96437024999977,236.45656529200096,236.45656529200096,236.7573718750009,x,0.296754625000176,None,,,,,shivam,001,2024-11-17_14h42.43.532,experiment,2024.1.5,None,2024-11-17 14h42.53.355708 +0530,
final_white_noise_0_left.wav,0,Left,9,1,109,4,,,,,,,,,236.76771183300116,,,,,,,,,,236.75798883300013,pre_test,236.76771183300116,237.26442283366694,237.26447374999952,237.75618858300004,237.75618858300004,238.0319593330005,c,0.2696630409991485,None,,,,,shivam,001,2024-11-17_14h42.43.532,experiment,2024.1.5,None,2024-11-17 14h42.53.355708 +0530,
final_pure_tone_30_right.wav,30,Right,9,2,110,9,,,,,,,,,238.04168870800095,,,,,,,,,,238.03260979200059,pre_test,238.04168870800095,238.53823266666612,238.53773629200077,239.03079787500064,239.03079787500064,239.30713237500095,v,0.2710255829988455,None,,,,,shivam,001,2024-11-17_14h42.43.532,experiment,2024.1.5,None,2024-11-17 14h42.53.355708 +0530,
final_pure_tone_90_left.wav,90,Left,9,3,111,6,,,,,,,,,239.3175817499996,,,,,,,,,,239.30774329199994,pre_test,239.3175817499996,239.81434195866703,239.81474383299974,240.30647549999958,240.30647549999958,240.62229500000103,z,0.3126043749998644,None,,,,,shivam,001,2024-11-17_14h42.43.532,experiment,2024.1.5,None,2024-11-17 14h42.53.355708 +0530,
final_white_noise_30_left.wav,30,Left,9,4,112,2,,,,,,,,,240.6345036670009,,,,,,,,,,240.62296279200018,pre_test,240.6345036670009,241.1308685416664,241.1313057919997,241.62370575000023,241.62370575000023,249.54109312500077,v,7.915987042000779,None,,,,,shivam,001,2024-11-17_14h42.43.532,experiment,2024.1.5,None,2024-11-17 14h42.53.355708 +0530,
final_pure_tone_90_right.wav,90,Right,9,5,113,7,,,,,,,,,249.55137591700077,,,,,,,,,,249.54171475000112,pre_test,249.55137591700077,250.0479598746663,250.04801954200047,250.54019145799975,250.54019145799975,250.70755074999943,b,0.15914875000089523,None,,,,,shivam,001,2024-11-17_14h42.43.532,experiment,2024.1.5,None,2024-11-17 14h42.53.355708 +0530,
final_white_noise_0_right.wav,0,Right,9,6,114,5,,,,,,,,,250.71907699999974,,,,,,,,,,250.70819787500113,pre_test,250.71907699999974,251.21479958366788,251.21451229200102,251.7067633330007,251.7067633330007,251.89980845799982,v,0.18400783400102227,None,,,,,shivam,001,2024-11-17_14h42.43.532,experiment,2024.1.5,None,2024-11-17 14h42.53.355708 +0530,
final_white_noise_30_right.wav,30,Right,9,7,115,3,,,,,,,,,251.91160854200098,,,,,,,,,,251.90099304199975,pre_test,251.91160854200098,252.4061449996664,252.40338891700048,252.8979441249994,252.8979441249994,252.96727637500044,v,0.06355037499997707,None,,,,,shivam,001,2024-11-17_14h42.43.532,experiment,2024.1.5,None,2024-11-17 14h42.53.355708 +0530,
final_white_noise_90_left.wav,90,Left,9,8,116,0,,,,,,,,,252.9795552079995,,,,,,,,,,252.9684372920001,pre_test,252.9795552079995,253.4727554586664,253.47045833300035,253.96520466699985,253.96520466699985,254.43334091699944,v,0.46358670799963875,None,,,,,shivam,001,2024-11-17_14h42.43.532,experiment,2024.1.5,None,2024-11-17 14h42.53.355708 +0530,
final_white_noise_90_right.wav,90,Right,9,9,117,1,,,,,,,,,254.44450662500094,,,,,,,,,,254.43397395800093,pre_test,254.44450662500094,254.93883645866688,254.93813041700014,255.43175641699963,255.43175641699963,255.5074471250009,b,0.0742331670007843,None,,,,,shivam,001,2024-11-17_14h42.43.532,experiment,2024.1.5,None,2024-11-17 14h42.53.355708 +0530,
final_pure_tone_30_left.wav,30,Left,9,10,118,8,,,,,,,,,255.51809074999983,,,,,,,,,,255.50805191700056,pre_test,255.51809074999983,256.01431804166737,256.0149902080011,256.50621737500114,256.50621737500114,256.63315729200076,c,0.11969441600012942,None,,,,,shivam,001,2024-11-17_14h42.43.532,experiment,2024.1.5,None,2024-11-17 14h42.53.355708 +0530,
final_pure_tone_0_right.wav,0,Right,9,11,119,11,,,,,,,,,256.6451233330008,,,,,,,,,,256.63448920799965,pre_test,256.6451233330008,257.13812895866636,257.1388626250009,257.63122945800023,257.63122945800023,262.69099308300065,c,5.054087208000055,None,,,,,shivam,001,2024-11-17_14h42.43.532,experiment,2024.1.5,None,2024-11-17 14h42.53.355708 +0530,
final_white_noise_90_left.wav,90,Left,10,0,120,0,,,,,,,,,262.70071633299995,,,,,,,,,,262.69161350000104,pre_test,262.70071633299995,263.19809124966764,263.19813316699947,263.69047141699957,263.69047141699957,263.89999358299974,z,0.20199137499912467,None,,,,,shivam,001,2024-11-17_14h42.43.532,experiment,2024.1.5,None,2024-11-17 14h42.53.355708 +0530,
final_pure_tone_30_left.wav,30,Left,10,1,121,8,,,,,,,,,263.9100983749995,,,,,,,,,,263.90063516699956,pre_test,263.9100983749995,264.40658891666703,264.40463866699974,264.8984214579996,264.8984214579996,265.78369762500006,c,0.8807066669996857,None,,,,,shivam,001,2024-11-17_14h42.43.532,experiment,2024.1.5,None,2024-11-17 14h42.53.355708 +0530,
final_pure_tone_90_right.wav,90,Right,10,2,122,7,,,,,,,,,265.7937776250001,,,,,,,,,,265.7844158330008,pre_test,265.7937776250001,266.2889003746661,266.28780033300063,266.78204245800043,266.78204245800043,267.19103220800025,z,0.40254841599926294,None,,,,,shivam,001,2024-11-17_14h42.43.532,experiment,2024.1.5,None,2024-11-17 14h42.53.355708 +0530,
final_pure_tone_90_left.wav,90,Left,10,3,123,6,,,,,,,,,267.2009695830002,,,,,,,,,,267.1916531250008,pre_test,267.2009695830002,267.69791116666624,267.6985089580012,268.1909344579999,268.1909344579999,268.70767841700035,c,0.510299292000127,None,,,,,shivam,001,2024-11-17_14h42.43.532,experiment,2024.1.5,None,2024-11-17 14h42.53.355708 +0530,
final_white_noise_30_left.wav,30,Left,10,4,124,2,,,,,,,,,268.7182432080008,,,,,,,,,,268.70829808300005,pre_test,268.7182432080008,269.2150704996677,269.21514441699946,269.70751075000044,269.70751075000044,270.1668211670003,z,0.4549648749998596,None,,,,,shivam,001,2024-11-17_14h42.43.532,experiment,2024.1.5,None,2024-11-17 14h42.53.355708 +0530,
final_pure_tone_0_right.wav,0,Right,10,5,125,11,,,,,,,,,270.1805663750001,,,,,,,,,,270.16823266699976,pre_test,270.1805663750001,270.6727387496669,270.6718118330009,271.1655975419999,271.1655975419999,271.8940357499996,v,0.7164125839990447,None,,,,,shivam,001,2024-11-17_14h42.43.532,experiment,2024.1.5,None,2024-11-17 14h42.53.355708 +0530,
final_white_noise_0_left.wav,0,Left,10,6,126,4,,,,,,,,,271.9037158330011,,,,,,,,,,271.89468820799993,pre_test,271.9037158330011,272.3982889166675,272.3988183750007,272.8905035830012,272.8905035830012,274.4080931669996,z,1.5133531669998774,None,,,,,shivam,001,2024-11-17_14h42.43.532,experiment,2024.1.5,None,2024-11-17 14h42.53.355708 +0530,
final_white_noise_30_right.wav,30,Right,10,7,127,3,,,,,,,,,274.4198141249999,,,,,,,,,,274.4088026669997,pre_test,274.4198141249999,274.91518583366656,274.91515937500117,275.4072988330008,275.4072988330008,275.6413016250008,b,0.23196754200034775,None,,,,,shivam,001,2024-11-17_14h42.43.532,experiment,2024.1.5,None,2024-11-17 14h42.53.355708 +0530,
final_pure_tone_30_right.wav,30,Right,10,8,128,9,,,,,,,,,275.6527575,,,,,,,,,,275.6419337919997,pre_test,275.6527575,276.148166541667,276.1486504170007,276.6403202500005,276.6403202500005,277.015980958,v,0.3502762079988315,None,,,,,shivam,001,2024-11-17_14h42.43.532,experiment,2024.1.5,None,2024-11-17 14h42.53.355708 +0530,
final_pure_tone_0_left.wav,0,Left,10,9,129,10,,,,,,,,,277.0321008330011,,,,,,,,,,277.01662045800003,pre_test,277.0321008330011,277.52358820866743,277.51962345799984,278.00706850000097,278.00706850000097,280.9249802920003,v,2.9166061249998165,None,,,,,shivam,001,2024-11-17_14h42.43.532,experiment,2024.1.5,None,2024-11-17 14h42.53.355708 +0530,
final_white_noise_0_right.wav,0,Right,10,10,130,5,,,,,,,,,280.93648054200094,,,,,,,,,,280.9256476669998,pre_test,280.93648054200094,281.4317530836672,281.43183616700117,281.9240680420007,281.9240680420007,282.22554262499943,c,0.29656599999907485,None,,,,,shivam,001,2024-11-17_14h42.43.532,experiment,2024.1.5,None,2024-11-17 14h42.53.355708 +0530,
final_white_noise_90_right.wav,90,Right,10,11,131,1,,,,,,,,,282.23674500000016,,,,,,,,,,282.2262155419994,pre_test,282.23674500000016,282.73175595866655,282.73206966699945,283.2241594999996,283.2241594999996,283.8748623749998,v,0.6436874169994553,None,,,,,shivam,001,2024-11-17_14h42.43.532,experiment,2024.1.5,None,2024-11-17 14h42.53.355708 +0530,
final_pure_tone_90_left.wav,90,Left,11,0,132,6,,,,,,,,,283.88537279199954,,,,,,,,,,283.8754764580008,pre_test,283.88537279199954,284.38252924966787,284.3818041249997,284.874867333001,284.874867333001,285.1679677920001,c,0.29045358300027146,None,,,,,shivam,001,2024-11-17_14h42.43.532,experiment,2024.1.5,None,2024-11-17 14h42.53.355708 +0530,
final_pure_tone_0_right.wav,0,Right,11,1,133,11,,,,,,,,,285.1783905829998,,,,,,,,,,285.16866270799983,pre_test,285.1783905829998,285.672865333667,285.672032208,286.1653987919999,286.1653987919999,286.39192108300085,c,0.22172995899927628,None,,,,,shivam,001,2024-11-17_14h42.43.532,experiment,2024.1.5,None,2024-11-17 14h42.53.355708 +0530,
final_white_noise_30_left.wav,30,Left,11,2,134,2,,,,,,,,,286.4024460420005,,,,,,,,,,286.39258533300017,pre_test,286.4024460420005,286.8986480416663,286.8988463750011,287.3909047500001,287.3909047500001,287.81832766700063,z,0.4247144170003594,None,,,,,shivam,001,2024-11-17_14h42.43.532,experiment,2024.1.5,None,2024-11-17 14h42.53.355708 +0530,
final_pure_tone_90_right.wav,90,Right,11,3,135,7,,,,,,,,,287.8289751249995,,,,,,,,,,287.8194699579999,pre_test,287.8289751249995,288.32068320866733,288.322851500001,288.8151840829996,288.8151840829996,289.16111470800024,b,0.33381987499888055,None,,,,,shivam,001,2024-11-17_14h42.43.532,experiment,2024.1.5,None,2024-11-17 14h42.53.355708 +0530,
final_pure_tone_30_right.wav,30,Right,11,4,136,9,,,,,,,,,289.1692779170007,,,,,,,,,,289.1617895830004,pre_test,289.1692779170007,289.66511704166646,289.6659435420006,290.1568697920011,290.1568697920011,290.34127604199966,b,0.18140458299967577,None,,,,,shivam,001,2024-11-17_14h42.43.532,experiment,2024.1.5,None,2024-11-17 14h42.53.355708 +0530,
final_white_noise_90_right.wav,90,Right,11,5,137,1,,,,,,,,,290.3514319999995,,,,,,,,,,290.3419093329994,pre_test,290.3514319999995,290.848489416667,290.84908237499985,291.3420077080009,291.3420077080009,291.7347523749995,b,0.3900915829999576,None,,,,,shivam,001,2024-11-17_14h42.43.532,experiment,2024.1.5,None,2024-11-17 14h42.53.355708 +0530,
final_white_noise_0_right.wav,0,Right,11,6,138,5,,,,,,,,,291.7457033749997,,,,,,,,,,291.7360962500006,pre_test,291.7457033749997,292.24054054166686,292.238143083001,292.7327273330011,292.7327273330011,293.0007805000005,v,0.2631543329989654,None,,,,,shivam,001,2024-11-17_14h42.43.532,experiment,2024.1.5,None,2024-11-17 14h42.53.355708 +0530,
final_pure_tone_30_left.wav,30,Left,11,7,139,8,,,,,,,,,293.0112280829999,,,,,,,,,,293.0013920420006,pre_test,293.0112280829999,293.50713820866645,293.50521262500115,293.99893554200025,293.99893554200025,294.241662542001,x,0.23392866699941806,None,,,,,shivam,001,2024-11-17_14h42.43.532,experiment,2024.1.5,None,2024-11-17 14h42.53.355708 +0530,
final_white_noise_30_right.wav,30,Right,11,8,140,3,,,,,,,,,294.2513829170002,,,,,,,,,,294.24229354199997,pre_test,294.2513829170002,294.74848729166683,294.74893141699977,295.2410472920001,295.2410472920001,295.52354945800107,v,0.27476883300005284,None,,,,,shivam,001,2024-11-17_14h42.43.532,experiment,2024.1.5,None,2024-11-17 14h42.53.355708 +0530,
final_pure_tone_0_left.wav,0,Left,11,9,141,10,,,,,,,,,295.5338733330009,,,,,,,,,,295.5241725420001,pre_test,295.5338733330009,296.02315424966787,296.0323929999995,296.5244524580012,296.5244524580012,296.7175840830005,c,0.18871004200082098,None,,,,,shivam,001,2024-11-17_14h42.43.532,experiment,2024.1.5,None,2024-11-17 14h42.53.355708 +0530,
final_white_noise_0_left.wav,0,Left,11,10,142,4,,,,,,,,,296.7275461669997,,,,,,,,,,296.7182485000012,pre_test,296.7275461669997,297.22273620866713,297.22269154199967,297.7160975420011,297.7160975420011,298.1926778750003,x,0.4696191250004631,None,,,,,shivam,001,2024-11-17_14h42.43.532,experiment,2024.1.5,None,2024-11-17 14h42.53.355708 +0530,
final_white_noise_90_left.wav,90,Left,11,11,143,0,,,,,,,,,298.2037141670007,,,,,,,,,,298.1932884170001,pre_test,298.2037141670007,298.6991848336677,298.699303667001,299.1913302080011,299.1913302080011,299.84071779199985,x,0.6415756249989499,None,,,,,shivam,001,2024-11-17_14h42.43.532,experiment,2024.1.5,None,2024-11-17 14h42.53.355708 +0530,
final_white_noise_90_left.wav,90,Left,12,0,144,0,,,,,,,,,299.86517724999976,,,,,,,,,,299.84132941700045,pre_test,299.86517724999976,300.3490638746664,300.35346391700114,300.8406605830005,300.8406605830005,301.07548099999985,z,0.22695399999975052,None,,,,,shivam,001,2024-11-17_14h42.43.532,experiment,2024.1.5,None,2024-11-17 14h42.53.355708 +0530,
final_pure_tone_0_left.wav,0,Left,12,1,145,10,,,,,,,,,301.0857665000003,,,,,,,,,,301.07610583300084,pre_test,301.0857665000003,301.58230266666783,301.58256820799943,302.0742488750002,302.0742488750002,303.05118895800115,c,0.9718892079999932,None,,,,,shivam,001,2024-11-17_14h42.43.532,experiment,2024.1.5,None,2024-11-17 14h42.53.355708 +0530,
final_pure_tone_90_right.wav,90,Right,12,2,146,7,,,,,,,,,303.06333845799963,,,,,,,,,,303.051918000001,pre_test,303.06333845799963,303.5569151246675,303.5554769579994,304.04795020799975,304.04795020799975,304.4669166250005,v,0.417687165998359,None,,,,,shivam,001,2024-11-17_14h42.43.532,experiment,2024.1.5,None,2024-11-17 14h42.53.355708 +0530,
final_white_noise_0_left.wav,0,Left,12,3,147,4,,,,,,,,,304.4769822500002,,,,,,,,,,304.46753895800066,pre_test,304.4769822500002,304.9732853336666,304.9725300829996,305.46529683300105,305.46529683300105,305.53394754200053,c,0.05959662499844853,None,,,,,shivam,001,2024-11-17_14h42.43.532,experiment,2024.1.5,None,2024-11-17 14h42.53.355708 +0530,
final_white_noise_90_right.wav,90,Right,12,4,148,1,,,,,,,,,305.5448571249999,,,,,,,,,,305.53534212500017,pre_test,305.5448571249999,306.04025537466646,306.0387855000008,306.53274112500003,306.53274112500003,306.7078480830005,c,0.16807608400085883,None,,,,,shivam,001,2024-11-17_14h42.43.532,experiment,2024.1.5,None,2024-11-17 14h42.53.355708 +0530,
final_white_noise_30_right.wav,30,Right,12,5,149,3,,,,,,,,,306.71796395800084,,,,,,,,,,306.70847400000093,pre_test,306.71796395800084,307.21537424966687,307.2159703750003,307.70800175000113,307.70800175000113,307.8919412079995,c,0.18042316599894548,None,,,,,shivam,001,2024-11-17_14h42.43.532,experiment,2024.1.5,None,2024-11-17 14h42.53.355708 +0530,
final_pure_tone_90_left.wav,90,Left,12,6,150,6,,,,,,,,,307.9033621670005,,,,,,,,,,307.8925560830012,pre_test,307.9033621670005,308.39921658366643,308.3994803750011,308.8920577080007,308.8920577080007,309.10853312499967,x,0.21295399999871734,None,,,,,shivam,001,2024-11-17_14h42.43.532,experiment,2024.1.5,None,2024-11-17 14h42.53.355708 +0530,
final_pure_tone_30_left.wav,30,Left,12,7,151,8,,,,,,,,,309.1189574580003,,,,,,,,,,309.10915424999985,pre_test,309.1189574580003,309.6157344996666,309.61609337499976,310.106211833001,310.106211833001,310.71675391700046,z,0.6031634160008252,None,,,,,shivam,001,2024-11-17_14h42.43.532,experiment,2024.1.5,None,2024-11-17 14h42.53.355708 +0530,
final_pure_tone_30_right.wav,30,Right,12,8,152,9,,,,,,,,,310.7283831250006,,,,,,,,,,310.7173731670009,pre_test,310.7283831250006,311.22367862466695,311.22238908300096,311.70816341700083,311.70816341700083,311.93549829199947,v,0.22487783399992622,None,,,,,shivam,001,2024-11-17_14h42.43.532,experiment,2024.1.5,None,2024-11-17 14h42.53.355708 +0530,
final_white_noise_30_left.wav,30,Left,12,9,153,2,,,,,,,,,311.9477762919996,,,,,,,,,,311.93616408300113,pre_test,311.9477762919996,312.4400445836675,312.43722208300096,312.9325733330006,312.9325733330006,313.30131704199994,z,0.36400733399932506,None,,,,,shivam,001,2024-11-17_14h42.43.532,experiment,2024.1.5,None,2024-11-17 14h42.53.355708 +0530,
final_pure_tone_0_right.wav,0,Right,12,10,154,11,,,,,,,,,313.3141007080012,,,,,,,,,,313.30256712499977,pre_test,313.3141007080012,313.80754212466695,313.80558683300114,314.2995286250007,314.2995286250007,315.1916732919999,x,0.8886364999998477,None,,,,,shivam,001,2024-11-17_14h42.43.532,experiment,2024.1.5,None,2024-11-17 14h42.53.355708 +0530,
final_white_noise_0_right.wav,0,Right,12,11,155,5,,,,,,,,,315.2031697500006,,,,,,,,,,315.1922854580007,pre_test,315.2031697500006,315.6990669166664,315.69960012500087,316.191511250001,316.191511250001,316.36895370800084,c,0.17191262500091398,None,,,,,shivam,001,2024-11-17_14h42.43.532,experiment,2024.1.5,None,2024-11-17 14h42.53.355708 +0530,
final_white_noise_30_right.wav,30,Right,13,0,156,3,,,,,,,,,316.3784902080006,,,,,,,,,,316.3695595829995,pre_test,316.3784902080006,316.8733058336677,316.8729941670008,317.366616917001,317.366616917001,317.99201079200066,c,0.6194480409994867,None,,,,,shivam,001,2024-11-17_14h42.43.532,experiment,2024.1.5,None,2024-11-17 14h42.53.355708 +0530,
final_white_noise_0_left.wav,0,Left,13,1,157,4,,,,,,,,,318.0017346670011,,,,,,,,,,317.9926372080008,pre_test,318.0017346670011,318.49899629166634,318.49968870799967,318.9918025830011,318.9918025830011,319.63523262499984,c,0.6411534580001899,None,,,,,shivam,001,2024-11-17_14h42.43.532,experiment,2024.1.5,None,2024-11-17 14h42.53.355708 +0530,
final_white_noise_30_left.wav,30,Left,13,2,158,2,,,,,,,,,319.6450504580007,,,,,,,,,,319.63586399999986,pre_test,319.6450504580007,320.1415417916671,320.1372911670005,320.6329935419999,320.6329935419999,322.0846466670009,x,1.4429559170002904,None,,,,,shivam,001,2024-11-17_14h42.43.532,experiment,2024.1.5,None,2024-11-17 14h42.53.355708 +0530,
final_white_noise_90_right.wav,90,Right,13,3,159,1,,,,,,,,,322.0959067920012,,,,,,,,,,322.08607683300033,pre_test,322.0959067920012,322.5906386666668,322.5893500000002,323.0830803330009,323.0830803330009,323.4681229580001,v,0.3779813749988534,None,,,,,shivam,001,2024-11-17_14h42.43.532,experiment,2024.1.5,None,2024-11-17 14h42.53.355708 +0530,
final_pure_tone_30_left.wav,30,Left,13,4,160,8,,,,,,,,,323.4791572920003,,,,,,,,,,323.469372167001,pre_test,323.4791572920003,323.97193008366617,323.9722596669999,324.46645762499975,324.46645762499975,326.9595682500003,c,2.4917742500001623,None,,,,,shivam,001,2024-11-17_14h42.43.532,experiment,2024.1.5,None,2024-11-17 14h42.53.355708 +0530,
final_pure_tone_30_right.wav,30,Right,13,5,161,9,,,,,,,,,326.9700628749997,,,,,,,,,,326.96022670800085,pre_test,326.9700628749997,327.46673845866667,327.46596450000106,327.9580464169994,327.9580464169994,328.3782350420006,v,0.40885333299956983,None,,,,,shivam,001,2024-11-17_14h42.43.532,experiment,2024.1.5,None,2024-11-17 14h42.53.355708 +0530,
final_pure_tone_90_left.wav,90,Left,13,6,162,6,,,,,,,,,328.38578612499987,,,,,,,,,,328.37889237499985,pre_test,328.38578612499987,328.8825303336673,328.8831887920005,329.3750300419997,329.3750300419997,329.992496375,v,0.6134775829996215,None,,,,,shivam,001,2024-11-17_14h42.43.532,experiment,2024.1.5,None,2024-11-17 14h42.53.355708 +0530,
final_pure_tone_90_right.wav,90,Right,13,7,163,7,,,,,,,,,330.00368029200035,,,,,,,,,,329.993111875001,pre_test,330.00368029200035,330.49940745866684,330.5003552920007,330.9919171250003,330.9919171250003,332.708785625,x,1.7095375840017368,None,,,,,shivam,001,2024-11-17_14h42.43.532,experiment,2024.1.5,None,2024-11-17 14h42.53.355708 +0530,
final_white_noise_0_right.wav,0,Right,13,8,164,5,,,,,,,,,332.7191215420007,,,,,,,,,,332.7094466670005,pre_test,332.7191215420007,333.2163062086677,333.21659029200055,333.7097417919995,333.7097417919995,334.4782528329997,c,0.7572091249985533,None,,,,,shivam,001,2024-11-17_14h42.43.532,experiment,2024.1.5,None,2024-11-17 14h42.53.355708 +0530,
final_pure_tone_0_left.wav,0,Left,13,9,165,10,,,,,,,,,334.4864349170002,,,,,,,,,,334.4788788750011,pre_test,334.4864349170002,334.98276229166754,334.9831783749996,335.476079125001,335.476079125001,336.20914170800097,c,0.7304532500002097,None,,,,,shivam,001,2024-11-17_14h42.43.532,experiment,2024.1.5,None,2024-11-17 14h42.53.355708 +0530,
final_pure_tone_0_right.wav,0,Right,13,10,166,11,,,,,,,,,336.21944941699985,,,,,,,,,,336.2097878330005,pre_test,336.21944941699985,336.71665229166706,336.71672254199984,337.2086717500006,337.2086717500006,337.5333666669994,x,0.3179977499985398,None,,,,,shivam,001,2024-11-17_14h42.43.532,experiment,2024.1.5,None,2024-11-17 14h42.53.355708 +0530,
final_white_noise_90_left.wav,90,Left,13,11,167,0,,,,,,,,,337.5445778329995,,,,,,,,,,337.5339789999998,pre_test,337.5445778329995,338.0328379586665,338.0375994170008,338.5253080420007,338.5253080420007,339.15170795800077,z,0.616962500000227,None,,,,,shivam,001,2024-11-17_14h42.43.532,experiment,2024.1.5,None,2024-11-17 14h42.53.355708 +0530,
final_white_noise_90_left.wav,90,Left,14,0,168,0,,,,,,,,,339.1627665420001,,,,,,,,,,339.1530091250006,pre_test,339.1627665420001,339.65771024966693,339.6559441669997,340.1499843750007,340.1499843750007,342.7429787500005,z,2.5855789170000207,None,,,,,shivam,001,2024-11-17_14h42.43.532,experiment,2024.1.5,None,2024-11-17 14h42.53.355708 +0530,
final_pure_tone_0_left.wav,0,Left,14,1,169,10,,,,,,,,,342.75360241700037,,,,,,,,,,342.74364720800077,pre_test,342.75360241700037,343.2496270836675,343.2502006670002,343.74213412500103,343.74213412500103,344.18416937500115,c,0.4344694999999774,None,,,,,shivam,001,2024-11-17_14h42.43.532,experiment,2024.1.5,None,2024-11-17 14h42.53.355708 +0530,
final_pure_tone_30_left.wav,30,Left,14,2,170,8,,,,,,,,,344.1936759170003,,,,,,,,,,344.18476487500084,pre_test,344.1936759170003,344.6905632916662,344.6901441250011,345.1757157920001,345.1757157920001,346.3591758750008,x,1.1772662500006845,None,,,,,shivam,001,2024-11-17_14h42.43.532,experiment,2024.1.5,None,2024-11-17 14h42.53.355708 +0530,
final_pure_tone_90_right.wav,90,Right,14,3,171,7,,,,,,,,,346.36929450000025,,,,,,,,,,346.35978391699973,pre_test,346.36929450000025,346.8588190836674,346.86689495800056,347.35788387499997,347.35788387499997,347.83462016700105,b,0.46701329099960276,None,,,,,shivam,001,2024-11-17_14h42.43.532,experiment,2024.1.5,None,2024-11-17 14h42.53.355708 +0530,
final_white_noise_30_left.wav,30,Left,14,4,172,2,,,,,,,,,347.8422965000009,,,,,,,,,,347.8353032920004,pre_test,347.8422965000009,348.34173362466777,348.33368083300047,348.8335749580001,348.8335749580001,349.2018112500009,x,0.3597574999985227,None,,,,,shivam,001,2024-11-17_14h42.43.532,experiment,2024.1.5,None,2024-11-17 14h42.53.355708 +0530,
final_white_noise_90_right.wav,90,Right,14,5,173,1,,,,,,,,,349.21197595800004,,,,,,,,,,349.20252179199997,pre_test,349.21197595800004,349.7082897916664,349.70518487499976,350.2002203330012,350.2002203330012,350.35227379200114,b,0.1499828329997399,None,,,,,shivam,001,2024-11-17_14h42.43.532,experiment,2024.1.5,None,2024-11-17 14h42.53.355708 +0530,
final_white_noise_30_right.wav,30,Right,14,6,174,3,,,,,,,,,350.3618646670002,,,,,,,,,,350.3529164169995,pre_test,350.3618646670002,350.85841341666696,350.85559670800103,351.3496938749995,351.3496938749995,351.60170641700097,v,0.24789216600038344,None,,,,,shivam,001,2024-11-17_14h42.43.532,experiment,2024.1.5,None,2024-11-17 14h42.53.355708 +0530,
final_pure_tone_0_right.wav,0,Right,14,7,175,11,,,,,,,,,351.61250912499963,,,,,,,,,,351.60304520799946,pre_test,351.61250912499963,352.1077788336663,352.1064647080002,352.5999151670003,352.5999151670003,352.8268332500011,c,0.22064987500016287,None,,,,,shivam,001,2024-11-17_14h42.43.532,experiment,2024.1.5,None,2024-11-17 14h42.53.355708 +0530,
final_white_noise_0_right.wav,0,Right,14,8,176,5,,,,,,,,,352.8373416249997,,,,,,,,,,352.82745075000093,pre_test,352.8373416249997,353.3334468746673,353.33358191700063,353.8257776669998,353.8257776669998,354.05343116699987,x,0.22477708400037955,None,,,,,shivam,001,2024-11-17_14h42.43.532,experiment,2024.1.5,None,2024-11-17 14h42.53.355708 +0530,
final_white_noise_0_left.wav,0,Left,14,9,177,4,,,,,,,,,354.06328824999946,,,,,,,,,,354.05405254200014,pre_test,354.06328824999946,354.5581178336672,354.5566606249995,355.05031591700026,355.05031591700026,355.14342012499947,x,0.0842181249990972,None,,,,,shivam,001,2024-11-17_14h42.43.532,experiment,2024.1.5,None,2024-11-17 14h42.53.355708 +0530,
final_pure_tone_90_left.wav,90,Left,14,10,178,6,,,,,,,,,355.15380087499943,,,,,,,,,,355.144065333001,pre_test,355.15380087499943,355.64989166666624,355.65043437500026,356.1430242080005,356.1430242080005,357.2267649580008,z,1.079441375000897,None,,,,,shivam,001,2024-11-17_14h42.43.532,experiment,2024.1.5,None,2024-11-17 14h42.53.355708 +0530,
final_pure_tone_30_right.wav,30,Right,14,11,179,9,,,,,,,,,357.237116667,,,,,,,,,,357.22741937499995,pre_test,357.237116667,357.7337330836674,357.73386904200015,358.225748750001,358.225748750001,358.4772606250008,v,0.24789133300146204,None,,,,,shivam,001,2024-11-17_14h42.43.532,experiment,2024.1.5,None,2024-11-17 14h42.53.355708 +0530,
final_pure_tone_30_right.wav,30,Right,15,0,180,9,,,,,,,,,358.4875878750008,,,,,,,,,,358.477866792,pre_test,358.4875878750008,358.98327104166697,358.98373920800077,359.4761791250003,359.4761791250003,359.6190696670001,b,0.14035258299918496,None,,,,,shivam,001,2024-11-17_14h42.43.532,experiment,2024.1.5,None,2024-11-17 14h42.53.355708 +0530,
final_pure_tone_90_left.wav,90,Left,15,1,181,6,,,,,,,,,359.62865845800115,,,,,,,,,,359.6196756669997,pre_test,359.62865845800115,360.12540141666636,360.12327016699965,360.6169022920003,360.6169022920003,361.6187666250007,x,0.99319933300103,None,,,,,shivam,001,2024-11-17_14h42.43.532,experiment,2024.1.5,None,2024-11-17 14h42.53.355708 +0530,
final_pure_tone_0_right.wav,0,Right,15,2,182,11,,,,,,,,,361.62978858300085,,,,,,,,,,361.61975020799946,pre_test,361.62978858300085,362.12595312466715,362.1234414999999,362.61659425000107,362.61659425000107,363.0612967500001,c,0.4343336250003631,None,,,,,shivam,001,2024-11-17_14h42.43.532,experiment,2024.1.5,None,2024-11-17 14h42.53.355708 +0530,
final_white_noise_30_left.wav,30,Left,15,3,183,2,,,,,,,,,363.0691443750002,,,,,,,,,,363.06192487500084,pre_test,363.0691443750002,363.5676234586665,363.5669039580007,364.0571999170006,364.0571999170006,364.55879037500017,z,0.4942262499989738,None,,,,,shivam,001,2024-11-17_14h42.43.532,experiment,2024.1.5,None,2024-11-17 14h42.53.355708 +0530,
final_white_noise_90_left.wav,90,Left,15,4,184,0,,,,,,,,,364.5703213750003,,,,,,,,,,364.56009537499995,pre_test,364.5703213750003,365.0667913746677,365.0669330420005,365.55932891700104,365.55932891700104,365.81891608300066,z,0.25083016700045846,None,,,,,shivam,001,2024-11-17_14h42.43.532,experiment,2024.1.5,None,2024-11-17 14h42.53.355708 +0530,
final_white_noise_30_right.wav,30,Right,15,5,185,3,,,,,,,,,365.82986941700074,,,,,,,,,,365.8200099580008,pre_test,365.82986941700074,366.32458208366756,366.3236687080007,366.8173221670004,366.8173221670004,367.86933325000064,v,1.042926082998747,None,,,,,shivam,001,2024-11-17_14h42.43.532,experiment,2024.1.5,None,2024-11-17 14h42.53.355708 +0530,
final_pure_tone_0_left.wav,0,Left,15,6,186,10,,,,,,,,,367.8796858750011,,,,,,,,,,367.8700707500011,pre_test,367.8796858750011,368.3757050416664,368.37351062500056,368.86757975,368.86757975,370.58533612500105,c,1.7132930840016343,None,,,,,shivam,001,2024-11-17_14h42.43.532,experiment,2024.1.5,None,2024-11-17 14h42.53.355708 +0530,
final_white_noise_90_right.wav,90,Right,15,7,187,1,,,,,,,,,370.59519374999945,,,,,,,,,,370.58597004200055,pre_test,370.59519374999945,371.0909417496662,371.0908424170011,371.5839396249994,371.5839396249994,372.18590866700106,v,0.595222083000408,None,,,,,shivam,001,2024-11-17_14h42.43.532,experiment,2024.1.5,None,2024-11-17 14h42.53.355708 +0530,
final_white_noise_0_left.wav,0,Left,15,8,188,4,,,,,,,,,372.19672954199996,,,,,,,,,,372.1872686250008,pre_test,372.19672954199996,372.6921694586674,372.69043579200115,373.1840552499998,373.1840552499998,373.60971829200025,v,0.42067841599964595,None,,,,,shivam,001,2024-11-17_14h42.43.532,experiment,2024.1.5,None,2024-11-17 14h42.53.355708 +0530,
final_pure_tone_30_left.wav,30,Left,15,9,189,8,,,,,,,,,373.6199520000009,,,,,,,,,,373.61035425000046,pre_test,373.6199520000009,374.1091058746663,374.117561250001,374.60896808300095,374.60896808300095,375.2091888750001,c,0.5920967500005645,None,,,,,shivam,001,2024-11-17_14h42.43.532,experiment,2024.1.5,None,2024-11-17 14h42.53.355708 +0530,
final_white_noise_0_right.wav,0,Right,15,10,190,5,,,,,,,,,375.2334033749994,,,,,,,,,,375.20985929200106,pre_test,375.2334033749994,375.71728974966777,375.7233437499999,376.21083654200083,376.21083654200083,377.00257412500105,c,0.7823694580001757,None,,,,,shivam,001,2024-11-17_14h42.43.532,experiment,2024.1.5,None,2024-11-17 14h42.53.355708 +0530,
final_pure_tone_90_right.wav,90,Right,15,11,191,7,,,,,,,,,377.0129662500003,,,,,,,,,,377.00327862499944,pre_test,377.0129662500003,377.50878579166624,377.50642679200064,378.00053308300085,378.00053308300085,379.07037862499965,b,1.067109708001226,None,,,,,shivam,001,2024-11-17_14h42.43.532,experiment,2024.1.5,None,2024-11-17 14h42.53.355708 +0530,
final_pure_tone_30_left.wav,30,Left,16,0,192,8,,,,,,,,,379.08077437500106,,,,,,,,,,379.0710414999994,pre_test,379.08077437500106,379.5751932496662,379.5727003330012,380.06729975000053,380.06729975000053,383.6425144170007,c,3.5672241669999494,None,,,,,shivam,001,2024-11-17_14h42.43.532,experiment,2024.1.5,None,2024-11-17 14h42.53.355708 +0530,
final_white_noise_90_left.wav,90,Left,16,1,193,0,,,,,,,,,383.6541337079998,,,,,,,,,,383.643842417001,pre_test,383.6541337079998,384.14243449966693,384.1508777500003,384.6438633329999,384.6438633329999,385.22837620800055,z,0.5808752920002007,None,,,,,shivam,001,2024-11-17_14h42.43.532,experiment,2024.1.5,None,2024-11-17 14h42.53.355708 +0530,
final_pure_tone_0_left.wav,0,Left,16,2,194,10,,,,,,,,,385.23814800000036,,,,,,,,,,385.2290070830004,pre_test,385.23814800000036,385.73423941666647,385.7346728749999,386.2268590830008,386.2268590830008,386.4437464170005,c,0.21218270799909078,None,,,,,shivam,001,2024-11-17_14h42.43.532,experiment,2024.1.5,None,2024-11-17 14h42.53.355708 +0530,
final_white_noise_90_right.wav,90,Right,16,3,195,1,,,,,,,,,386.45415499999945,,,,,,,,,,386.4443586670004,pre_test,386.45415499999945,386.9504347086661,386.9511011249997,387.44377341700056,387.44377341700056,387.6779393750003,v,0.22574812499988184,None,,,,,shivam,001,2024-11-17_14h42.43.532,experiment,2024.1.5,None,2024-11-17 14h42.53.355708 +0530,
final_white_noise_0_left.wav,0,Left,16,4,196,4,,,,,,,,,387.6880797499998,,,,,,,,,,387.6786010830001,pre_test,387.6880797499998,388.18379670866693,388.18439229199976,388.67694479199963,388.67694479199963,388.91003400000045,v,0.2250945830001001,None,,,,,shivam,001,2024-11-17_14h42.43.532,experiment,2024.1.5,None,2024-11-17 14h42.53.355708 +0530,
final_white_noise_30_left.wav,30,Left,16,5,197,2,,,,,,,,,388.92066650000015,,,,,,,,,,388.9106640000009,pre_test,388.92066650000015,389.41752733366616,389.41756429199995,389.91000587500093,389.91000587500093,391.193178042,x,1.2754714999991847,None,,,,,shivam,001,2024-11-17_14h42.43.532,experiment,2024.1.5,None,2024-11-17 14h42.53.355708 +0530,
final_pure_tone_30_right.wav,30,Right,16,6,198,9,,,,,,,,,391.20432016700033,,,,,,,,,,391.193789500001,pre_test,391.20432016700033,391.7006698746666,391.7011789999997,392.1927004580011,392.1927004580011,392.4874641669994,v,0.29197000000021944,None,,,,,shivam,001,2024-11-17_14h42.43.532,experiment,2024.1.5,None,2024-11-17 14h42.53.355708 +0530,
final_pure_tone_0_right.wav,0,Right,16,7,199,11,,,,,,,,,392.49977687499995,,,,,,,,,,392.488286875001,pre_test,392.49977687499995,392.9892820836669,392.9894222080002,393.4847981670009,393.4847981670009,393.743520375001,c,0.2564655000005587,None,,,,,shivam,001,2024-11-17_14h42.43.532,experiment,2024.1.5,None,2024-11-17 14h42.53.355708 +0530,
final_white_noise_0_right.wav,0,Right,16,8,200,5,,,,,,,,,393.75503733299956,,,,,,,,,,393.74413308300063,pre_test,393.75503733299956,394.2507440836673,394.25114504200064,394.74361275000047,394.74361275000047,395.036113958,c,0.2839819590008119,None,,,,,shivam,001,2024-11-17_14h42.43.532,experiment,2024.1.5,None,2024-11-17 14h42.53.355708 +0530,
final_pure_tone_90_left.wav,90,Left,16,9,201,6,,,,,,,,,395.04864500000076,,,,,,,,,,395.03746366700034,pre_test,395.04864500000076,395.54215391666753,395.54065616700063,396.03459674999976,396.03459674999976,396.3298933750011,z,0.2834025410011236,None,,,,,shivam,001,2024-11-17_14h42.43.532,experiment,2024.1.5,None,2024-11-17 14h42.53.355708 +0530,
final_white_noise_30_right.wav,30,Right,16,10,202,3,,,,,,,,,396.3394149169999,,,,,,,,,,396.3305832919996,pre_test,396.3394149169999,396.8343372916663,396.8345549580008,397.3263672920002,397.3263672920002,397.51934875000006,c,0.18413695800154528,None,,,,,shivam,001,2024-11-17_14h42.43.532,experiment,2024.1.5,None,2024-11-17 14h42.53.355708 +0530,
final_pure_tone_90_right.wav,90,Right,16,11,203,7,,,,,,,,,397.53138087499974,,,,,,,,,,397.52002133300084,pre_test,397.53138087499974,398.02384754166656,398.0252099999998,398.51829154200095,398.51829154200095,398.7694987920004,v,0.2432209580001654,None,,,,,shivam,001,2024-11-17_14h42.43.532,experiment,2024.1.5,None,2024-11-17 14h42.53.355708 +0530,
final_pure_tone_90_right.wav,90,Right,17,0,204,7,,,,,,,,,398.779493,,,,,,,,,,398.77033966700037,pre_test,398.779493,399.27527870866675,399.2724699579994,399.7676940420006,399.7676940420006,399.8136312080005,v,0.04280366700004379,None,,,,,shivam,001,2024-11-17_14h42.43.532,experiment,2024.1.5,None,2024-11-17 14h42.53.355708 +0530,
final_white_noise_30_right.wav,30,Right,17,1,205,3,,,,,,,,,399.8249422500012,,,,,,,,,,399.8147251669998,pre_test,399.8249422500012,400.3173957086676,400.3179720829994,400.81072183300057,400.81072183300057,401.61879341700114,x,0.8016894590000447,None,,,,,shivam,001,2024-11-17_14h42.43.532,experiment,2024.1.5,None,2024-11-17 14h42.53.355708 +0530,
final_white_noise_90_left.wav,90,Left,17,2,206,0,,,,,,,,,401.6289806670011,,,,,,,,,,401.61947016700105,pre_test,401.6289806670011,402.1241047916667,402.1252772500011,402.61831979199997,402.61831979199997,403.0934779580002,z,0.4670697919991653,None,,,,,shivam,001,2024-11-17_14h42.43.532,experiment,2024.1.5,None,2024-11-17 14h42.53.355708 +0530,
final_white_noise_90_right.wav,90,Right,17,3,207,1,,,,,,,,,403.10390675000053,,,,,,,,,,403.0941615419997,pre_test,403.10390675000053,403.60113816666694,403.60131524999997,404.0939902499995,404.0939902499995,404.6195954579998,b,0.5167661249997764,None,,,,,shivam,001,2024-11-17_14h42.43.532,experiment,2024.1.5,None,2024-11-17 14h42.53.355708 +0530,
final_white_noise_0_right.wav,0,Right,17,4,208,5,,,,,,,,,404.6298994580011,,,,,,,,,,404.62032137499955,pre_test,404.6298994580011,405.12625629166746,405.12433216700083,405.6177847500003,405.6177847500003,405.69354999999996,b,0.07057208299920603,None,,,,,shivam,001,2024-11-17_14h42.43.532,experiment,2024.1.5,None,2024-11-17 14h42.53.355708 +0530,
final_white_noise_0_left.wav,0,Left,17,5,209,4,,,,,,,,,405.70478979200016,,,,,,,,,,405.69487933300115,pre_test,405.70478979200016,406.2012120836664,406.20142529199984,406.6929935420012,406.6929935420012,406.74624454200057,b,0.04243499999938649,None,,,,,shivam,001,2024-11-17_14h42.43.532,experiment,2024.1.5,None,2024-11-17 14h42.53.355708 +0530,
final_pure_tone_0_left.wav,0,Left,17,6,210,10,,,,,,,,,406.7544200829998,,,,,,,,,,406.7468670420003,pre_test,406.7544200829998,407.2509319166677,407.251507125,407.74363933300083,407.74363933300083,408.08552212500035,x,0.336502374999327,None,,,,,shivam,001,2024-11-17_14h42.43.532,experiment,2024.1.5,None,2024-11-17 14h42.53.355708 +0530,
final_pure_tone_0_right.wav,0,Right,17,7,211,11,,,,,,,,,408.0956251669995,,,,,,,,,,408.0861297499996,pre_test,408.0956251669995,408.58494820866713,408.59102379199976,409.08417612499943,409.08417612499943,409.14657154199995,x,0.0512597500000993,None,,,,,shivam,001,2024-11-17_14h42.43.532,experiment,2024.1.5,None,2024-11-17 14h42.53.355708 +0530,
final_white_noise_30_left.wav,30,Left,17,8,212,2,,,,,,,,,409.1546452920011,,,,,,,,,,409.14720124999985,pre_test,409.1546452920011,409.6508947496661,409.65143575,410.1411337499994,410.1411337499994,410.44398912500037,v,0.29817766700034554,None,,,,,shivam,001,2024-11-17_14h42.43.532,experiment,2024.1.5,None,2024-11-17 14h42.53.355708 +0530,
final_pure_tone_30_left.wav,30,Left,17,9,213,8,,,,,,,,,410.4555759169998,,,,,,,,,,410.4446353330004,pre_test,410.4555759169998,410.95133766666754,410.95134925000093,411.44359904200064,411.44359904200064,411.7365354169997,x,0.28374362500107964,None,,,,,shivam,001,2024-11-17_14h42.43.532,experiment,2024.1.5,None,2024-11-17 14h42.53.355708 +0530,
final_pure_tone_90_left.wav,90,Left,17,10,214,6,,,,,,,,,411.7473602080008,,,,,,,,,,411.737670292001,pre_test,411.7473602080008,412.2423176666673,412.24121966700113,412.7353244170008,412.7353244170008,413.33665800000017,x,0.5971853749997535,None,,,,,shivam,001,2024-11-17_14h42.43.532,experiment,2024.1.5,None,2024-11-17 14h42.53.355708 +0530,
final_pure_tone_30_right.wav,30,Right,17,11,215,9,,,,,,,,,413.3475862920004,,,,,,,,,,413.33793074999994,pre_test,413.3475862920004,413.84213387466684,413.8414642080006,414.33480812500056,414.33480812500056,414.5034974579994,v,0.1640723340005934,None,,,,,shivam,001,2024-11-17_14h42.43.532,experiment,2024.1.5,None,2024-11-17 14h42.53.355708 +0530,
final_white_noise_90_left.wav,90,Left,18,0,216,0,,,,,,,,,414.5135164580006,,,,,,,,,,414.50419350000084,pre_test,414.5135164580006,415.0087222086661,415.0058781250009,415.5015602080002,415.5015602080002,416.0781247920004,x,0.5740659999992204,None,,,,,shivam,001,2024-11-17_14h42.43.532,experiment,2024.1.5,None,2024-11-17 14h42.53.355708 +0530,
final_white_noise_30_left.wav,30,Left,18,1,217,2,,,,,,,,,416.08839312500095,,,,,,,,,,416.0787837500011,pre_test,416.08839312500095,416.58459220866666,416.5850041670001,417.0769595420006,417.0769595420006,417.2025008750006,x,0.1160701250009879,None,,,,,shivam,001,2024-11-17_14h42.43.532,experiment,2024.1.5,None,2024-11-17 14h42.53.355708 +0530,
final_pure_tone_90_left.wav,90,Left,18,2,218,6,,,,,,,,,417.21329049999986,,,,,,,,,,417.20383983300053,pre_test,417.21329049999986,417.70891591666646,417.70802320800067,418.2017278330004,418.2017278330004,418.46097225000085,x,0.2504337089994806,None,,,,,shivam,001,2024-11-17_14h42.43.532,experiment,2024.1.5,None,2024-11-17 14h42.53.355708 +0530,
final_pure_tone_30_right.wav,30,Right,18,3,219,9,,,,,,,,,418.47125629199945,,,,,,,,,,418.4615969580009,pre_test,418.47125629199945,418.96782391666625,418.96875875000114,419.46062837499994,419.46062837499994,419.7711630829999,c,0.3078146249990823,None,,,,,shivam,001,2024-11-17_14h42.43.532,experiment,2024.1.5,None,2024-11-17 14h42.53.355708 +0530,
final_pure_tone_0_right.wav,0,Right,18,4,220,11,,,,,,,,,419.7815839579998,,,,,,,,,,419.7718477920007,pre_test,419.7815839579998,420.27503274966716,420.27471287499975,420.76821720800035,420.76821720800035,421.3944283330002,x,0.623029750000569,None,,,,,shivam,001,2024-11-17_14h42.43.532,experiment,2024.1.5,None,2024-11-17 14h42.53.355708 +0530,
final_pure_tone_0_left.wav,0,Left,18,5,221,10,,,,,,,,,421.40490950000094,,,,,,,,,,421.3950462920002,pre_test,421.40490950000094,421.90154583366734,421.90148254199994,422.39236116699976,422.39236116699976,422.55364604200076,c,0.15195637499891745,None,,,,,shivam,001,2024-11-17_14h42.43.532,experiment,2024.1.5,None,2024-11-17 14h42.53.355708 +0530,
final_white_noise_0_left.wav,0,Left,18,6,222,4,,,,,,,,,422.5644957500008,,,,,,,,,,422.554818042001,pre_test,422.5644957500008,423.05928924966634,423.05810120800015,423.55111020799995,423.55111020799995,423.7271876249997,x,0.16762104200097383,None,,,,,shivam,001,2024-11-17_14h42.43.532,experiment,2024.1.5,None,2024-11-17 14h42.53.355708 +0530,
final_white_noise_30_right.wav,30,Right,18,7,223,3,,,,,,,,,423.7372157080008,,,,,,,,,,423.727806375,pre_test,423.7372157080008,424.22727687466636,424.2352157080004,424.72664820799946,424.72664820799946,425.5705524170007,z,0.8387660830012464,None,,,,,shivam,001,2024-11-17_14h42.43.532,experiment,2024.1.5,None,2024-11-17 14h42.53.355708 +0530,
final_pure_tone_30_left.wav,30,Left,18,8,224,8,,,,,,,,,425.58149570800015,,,,,,,,,,425.57176837500083,pre_test,425.58149570800015,426.07572262466624,426.0751843329999,426.568487292001,426.568487292001,427.0618132920008,c,0.488866916999541,None,,,,,shivam,001,2024-11-17_14h42.43.532,experiment,2024.1.5,None,2024-11-17 14h42.53.355708 +0530,
final_pure_tone_90_right.wav,90,Right,18,9,225,7,,,,,,,,,427.07219333300054,,,,,,,,,,427.06243316700056,pre_test,427.07219333300054,427.56846649966633,427.56850391700027,428.059887292,428.059887292,429.94431237500066,v,1.8808782920004887,None,,,,,shivam,001,2024-11-17_14h42.43.532,experiment,2024.1.5,None,2024-11-17 14h42.53.355708 +0530,
final_white_noise_90_right.wav,90,Right,18,10,226,1,,,,,,,,,429.9549087920004,,,,,,,,,,429.94497791700087,pre_test,429.9549087920004,430.4512950836672,430.4520711670011,430.943989708001,430.943989708001,431.12047704200086,v,0.17148995800016564,None,,,,,shivam,001,2024-11-17_14h42.43.532,experiment,2024.1.5,None,2024-11-17 14h42.53.355708 +0530,
final_white_noise_0_right.wav,0,Right,18,11,227,5,,,,,,,,,431.1307694170009,,,,,,,,,,431.12121512500016,pre_test,431.1307694170009,431.62579012466654,431.6251962080005,432.1185715829997,432.1185715829997,432.6539921250005,c,0.5296259169990662,None,,,,,shivam,001,2024-11-17_14h42.43.532,experiment,2024.1.5,None,2024-11-17 14h42.53.355708 +0530,
final_white_noise_30_left.wav,30,Left,19,0,228,2,,,,,,,,,432.66478562500015,,,,,,,,,,432.65513145800105,pre_test,432.66478562500015,433.1596995416678,433.1579986249999,433.65187762499954,433.65187762499954,434.46129354200093,x,0.8070422500004497,None,,,,,shivam,001,2024-11-17_14h42.43.532,experiment,2024.1.5,None,2024-11-17 14h42.53.355708 +0530,
final_pure_tone_90_left.wav,90,Left,19,1,229,6,,,,,,,,,434.47097445799955,,,,,,,,,,434.46192062500086,pre_test,434.47097445799955,434.96815295866713,434.9687231250009,435.46102212500045,435.46102212500045,436.39305675000105,z,0.9305280420012423,None,,,,,shivam,001,2024-11-17_14h42.43.532,experiment,2024.1.5,None,2024-11-17 14h42.53.355708 +0530,
final_white_noise_0_left.wav,0,Left,19,2,230,4,,,,,,,,,436.4035470830004,,,,,,,,,,436.3936508750012,pre_test,436.4035470830004,436.89280562466615,436.90246750000006,437.39326220800103,437.39326220800103,437.60281916700114,c,0.20386004200008756,None,,,,,shivam,001,2024-11-17_14h42.43.532,experiment,2024.1.5,None,2024-11-17 14h42.53.355708 +0530,
final_pure_tone_30_right.wav,30,Right,19,3,231,9,,,,,,,,,437.6124575829999,,,,,,,,,,437.6034754169996,pre_test,437.6124575829999,438.10928204166726,438.1086900419996,438.59459075000086,438.59459075000086,438.92875724999976,v,0.32594950000020617,None,,,,,shivam,001,2024-11-17_14h42.43.532,experiment,2024.1.5,None,2024-11-17 14h42.53.355708 +0530,
final_pure_tone_90_right.wav,90,Right,19,4,232,7,,,,,,,,,438.9391915420001,,,,,,,,,,438.9293660830008,pre_test,438.9391915420001,439.43598316666635,439.4352377079995,439.9275784580004,439.9275784580004,440.37856716700117,b,0.4446162080002978,None,,,,,shivam,001,2024-11-17_14h42.43.532,experiment,2024.1.5,None,2024-11-17 14h42.53.355708 +0530,
final_pure_tone_30_left.wav,30,Left,19,5,233,8,,,,,,,,,440.38894670800073,,,,,,,,,,440.37922445799995,pre_test,440.38894670800073,440.8852646666676,440.8858347919995,441.37748937499964,441.37748937499964,441.5113503329994,b,0.1293606670005829,None,,,,,shivam,001,2024-11-17_14h42.43.532,experiment,2024.1.5,None,2024-11-17 14h42.53.355708 +0530,
final_white_noise_90_left.wav,90,Left,19,6,234,0,,,,,,,,,441.5217053329998,,,,,,,,,,441.5119747080007,pre_test,441.5217053329998,442.01823291666756,442.0189005829998,442.5119320829999,442.5119320829999,442.7870577499998,z,0.26687241699983133,None,,,,,shivam,001,2024-11-17_14h42.43.532,experiment,2024.1.5,None,2024-11-17 14h42.53.355708 +0530,
final_white_noise_30_right.wav,30,Right,19,7,235,3,,,,,,,,,442.79766349999954,,,,,,,,,,442.7883649579999,pre_test,442.79766349999954,443.29251683366624,443.2922647920004,443.78547504200105,443.78547504200105,443.994721250001,b,0.20572025000001304,None,,,,,shivam,001,2024-11-17_14h42.43.532,experiment,2024.1.5,None,2024-11-17 14h42.53.355708 +0530,
final_pure_tone_0_left.wav,0,Left,19,8,236,10,,,,,,,,,444.0050344579995,,,,,,,,,,443.99533079200046,pre_test,444.0050344579995,444.5017002086663,444.50222145800035,444.9951830829996,444.9951830829996,445.1783266250004,c,0.1750080000001617,None,,,,,shivam,001,2024-11-17_14h42.43.532,experiment,2024.1.5,None,2024-11-17 14h42.53.355708 +0530,
final_white_noise_90_right.wav,90,Right,19,9,237,1,,,,,,,,,445.188844667,,,,,,,,,,445.1789954169999,pre_test,445.188844667,445.6856809996664,445.6853434170007,446.1774561250004,446.1774561250004,446.7706865830005,b,0.5882920839994767,None,,,,,shivam,001,2024-11-17_14h42.43.532,experiment,2024.1.5,None,2024-11-17 14h42.53.355708 +0530,
final_white_noise_0_right.wav,0,Right,19,10,238,5,,,,,,,,,446.7820405420007,,,,,,,,,,446.7721043750007,pre_test,446.7820405420007,447.27389899966715,447.2738851670001,447.768960292,447.768960292,448.00384720799957,z,0.2250056670000049,None,,,,,shivam,001,2024-11-17_14h42.43.532,experiment,2024.1.5,None,2024-11-17 14h42.53.355708 +0530,
final_pure_tone_0_right.wav,0,Right,19,11,239,11,,,,,,,,,448.014423042001,,,,,,,,,,448.00474587499957,pre_test,448.014423042001,448.50948254166747,448.5089826250005,449.0023736250005,449.0023736250005,449.07875370799957,c,0.07253429199954553,None,,,,,shivam,001,2024-11-17_14h42.43.532,experiment,2024.1.5,None,2024-11-17 14h42.53.355708 +0530,
,,,,,,,,,,,,,,,,,,,,,,,,,,,,,,,,,,,,449.07921241700024,449.08948891699947,451.08535458299957,451.0770189579998,shivam,001,2024-11-17_14h42.43.532,experiment,2024.1.5,None,2024-11-17 14h42.53.355708 +0530,
